sample_index,timestamp_s,omega_x,omega_y,omega_z,acc_x,acc_y,acc_z
0,0.013728618622,-0.135279014707,0.100301757455,0.014154713601,-2.661122083664,1.196920156479,12.976043701172
1,0.019389629364,-0.202799707651,0.134897664189,0.029909921810,-3.523728370667,2.190739870071,12.172315597534
2,0.025831699371,-0.183918431401,-0.031239563599,0.023388303816,-2.044624090195,-1.758298397064,10.566694259644
3,0.039249897003,-0.062680289149,-0.160650104284,0.012924798764,-2.569838762283,-2.101183414459,11.493768692017
4,0.049689769745,0.127518072724,-0.201835438609,0.006547980011,-0.659155488014,-4.387199401855,8.560391426086
5,0.055782794952,0.205102249980,-0.144693225622,-0.013477182016,1.018273353577,-5.889983654022,6.747255325317
6,0.070109844208,0.192685514688,-0.036455102265,-0.032126508653,0.790477871895,-1.513913154602,4.438730239868
7,0.079354524612,0.075620800257,0.024062821642,-0.025444887578,-0.326049894094,2.209530115128,8.314237594604
8,0.086849212646,-0.036437518895,0.071138069034,-0.016412533820,0.089620657265,4.001553535461,8.701560974121
9,0.107681989670,-0.166602596641,0.015796691179,-0.010754335672,0.562712848186,3.613241910934,7.861270904541
10,0.109256744385,-0.201950758696,-0.004754711874,-0.017216524109,0.307675361633,1.533132314682,9.092318534851
11,0.116925239563,-0.163048684597,-0.024128565565,-0.025289248675,0.938526988029,-0.837231040001,9.469572067261
12,0.131853818893,-0.027100687847,-0.057444948703,-0.036993615329,1.678883075714,-1.947545170784,9.495903968811
13,0.139529466629,0.118123576045,-0.050738092512,-0.021890794858,1.903359532356,-1.472503185272,8.917902946472
14,0.145791053772,0.181794285774,-0.014894645661,0.002005499788,2.038775205612,1.864638566971,9.830035209656
15,0.159352540970,0.143879249692,-0.012547963299,0.021288484335,2.917029142380,2.267722368240,8.264583587646
16,0.174204587936,0.052382584661,-0.039061892778,0.035307109356,3.056687355042,2.982007503510,8.711919784546
17,0.175940990448,-0.042847421020,0.002033537487,0.044448751956,2.611788749695,0.905063509941,10.567615509033
18,0.189758062363,-0.076095037162,0.004631605465,0.043682955205,3.511524677277,0.370097965002,8.811649322510
19,0.203624010086,-0.050319809467,-0.042865302414,0.036416858435,3.601253509521,-0.949592232704,9.251084327698
20,0.212585926056,-0.037315916270,-0.022616863251,0.026986610144,3.644227027893,-0.920617401600,9.498409271240
21,0.219166278839,-0.008516837843,0.012502495199,0.020914256573,4.368989467621,-0.515432178974,8.349078178406
22,0.229123592377,-0.060349907726,0.005916985683,0.033301103860,4.263439178467,-0.085386551917,8.787302017212
23,0.236089706421,-0.102940790355,0.051617443562,0.029278561473,1.437643885612,-2.755638122559,9.204949378967
24,0.249453544617,0.121157817543,0.135914787650,0.044414345175,-2.140553474426,-3.110229015350,13.845111846924
25,0.259301900864,-0.446684151888,-0.046476893127,0.067373618484,-3.669007778168,0.826003074646,8.611853599548
26,0.266031503677,-0.006169360597,-0.228219434619,0.035948731005,-0.681790292263,-3.510561704636,6.144302368164
27,0.279085159302,-0.005082149990,-0.069880813360,0.069974377751,0.851672410965,1.264592885971,-4.152853965759
28,0.294639348984,0.155226409435,0.141790702939,0.003559559584,-2.932452678680,-0.055596400052,9.515596389771
29,0.296282291412,0.087754383683,0.327522605658,0.058591920882,-4.051938056946,-1.869275331497,16.105558395386
30,0.309264898300,0.196787357330,0.088515758514,0.019547568634,-2.741706371307,1.950183153152,9.749816894531
31,0.319398164749,0.171264290810,0.000178314804,-0.046527743340,-4.913712978363,2.432200193405,17.062728881836
32,0.326031684875,0.048832803965,-0.019196484238,-0.040403962135,-2.248801469803,0.715106666088,11.131264686584
33,0.339131832123,-0.106748752296,-0.199930623174,-0.039231952280,-2.951718568802,1.348121047020,11.876338958740
34,0.349422693253,-0.205064266920,-0.102908946574,-0.041849974543,-2.355728149414,1.823448896408,11.217644691467
35,0.356341362000,-0.173117622733,0.038084056228,-0.005903188605,0.636534929276,-0.990874111652,5.475923538208
36,0.369203329086,-0.011251138523,0.085843048990,-0.007096288260,-1.789320588112,-1.607641220093,11.135081291199
37,0.379124164581,0.139711141586,0.179367482662,-0.009714284912,-1.998205304146,-2.341641902924,11.101176261902
38,0.386081695557,0.229754999280,0.117579467595,0.003600317053,-2.059394121170,-0.218168735504,9.942203521729
39,0.399626016617,0.236330911517,0.029639765620,0.000356968492,-3.962294101715,1.405626058578,15.227104187012
40,0.412769079208,0.092938169837,-0.077088415623,0.016340043396,-2.012580871582,1.649341344833,11.075708389282
41,0.427982568741,-0.116318464279,-0.185898229480,0.011434054002,-0.651828885078,1.361322283745,8.769281387329
42,0.432335376740,-0.221220940351,-0.188118875027,-0.000323351938,0.306770116091,0.053770322353,7.705526828766
43,0.440350055695,-0.209683045745,-0.057987909764,0.027011314407,0.705679953098,-3.146824598312,6.137405395508
44,0.446022510529,-0.123460009694,0.018303146586,0.043089538813,1.193769812584,-1.535241246223,4.877007484436
45,0.459131956100,0.029469454661,0.112101912498,0.048065118492,0.181294828653,-0.981784164906,8.935417175293
46,0.469100952148,0.089893855155,0.030528681353,0.040558405221,0.249152764678,0.463007777929,8.866804122925
47,0.480442047119,0.091557800770,-0.022810801864,0.041477654129,-0.352394193411,1.293440580368,10.149463653564
48,0.490910053253,0.001332248328,0.000398796401,0.046575013548,0.415753483772,1.338479399681,9.694642066956
49,0.502472162247,-0.058652833104,-0.033089742064,0.038949731737,1.543801903725,0.352841466665,7.766340732574
50,0.509319782257,-0.107862003148,-0.073922209442,0.036097854376,2.185119867325,-0.184333607554,7.419337272644
51,0.525720119476,-0.114790670574,-0.078029863536,0.007521557622,2.108139753342,-0.110199257731,8.931733131409
52,0.534776210785,-0.079333744943,-0.027309525758,-0.002898410428,3.254991531372,-0.617313444614,7.339478969574
53,0.543816566467,-0.017665613443,-0.052435599267,-0.020936863497,2.652422428131,-1.025877356529,10.153508186340
54,0.550705432892,0.037845846266,-0.022941676900,-0.021124280989,2.994895935059,-0.644367814064,8.454226493835
55,0.559508562088,0.066949516535,-0.032382447273,-0.022662192583,3.214373111725,0.159452036023,9.721073150635
56,0.565796375275,0.067745357752,-0.013047115877,-0.031549315900,3.083803653717,0.721036255360,9.953798294067
57,0.584250926971,0.037013869733,-0.023180281743,-0.029301209375,3.751690387726,-0.082699820399,9.196986198425
58,0.592075586319,0.052010722458,-0.043276403099,-0.027435204014,3.765903472900,0.451608955860,9.506839752197
59,0.596264362335,0.058613620698,0.012292808853,-0.015307964757,4.684767723083,-0.448229819536,6.890188694000
60,0.609093189240,-0.017755970359,-0.099185414612,-0.035555556417,-1.188562273979,0.293875753880,22.358800888062
61,0.619581699371,-0.116006381810,0.064806275070,-0.034986227751,0.983519434929,12.275199890137,0.950403928757
62,0.632916212082,0.236323565245,-0.270743221045,-0.092500604689,-8.658242225647,-13.315216064453,16.534780502319
63,0.640204668045,0.043787319213,-0.028349284083,-0.028690500185,-3.942187309265,-0.846202194691,13.571749687195
64,0.649622201920,0.188530415297,0.067227877676,-0.112853504717,0.256237775087,-1.583764433861,1.016995787621
65,0.657191753387,0.007298237644,0.201733991504,-0.030919799581,-2.286923408508,2.868335008621,7.100001335144
66,0.669883728027,-0.054817497730,0.421472191811,-0.022147389129,-2.571393489838,4.691473960876,11.647954940796
67,0.679638862610,-0.205326810479,0.169629693031,-0.001776550431,-2.355104684830,1.583956122398,11.428731918335
68,0.685744524002,-0.252462357283,0.059244859964,0.055431537330,-5.032076835632,1.778447389603,15.684904098511
69,0.699509859085,-0.181989893317,0.028497496620,0.063305914402,-4.236920833588,-1.124837756157,14.179196357727
70,0.710798501968,0.010669059120,-0.125658810139,0.050183434039,-2.197182655334,-3.700631618500,10.695190429688
71,0.716257095337,0.171146079898,-0.110408827662,0.050256174058,-1.310402274132,-2.197527408600,8.582520484924
72,0.737651586533,0.262794673443,0.028461256996,0.028005329892,0.345168322325,0.488881468773,6.658463954926
73,0.743838071823,0.142122447491,0.105011396110,0.016747862101,-1.154250741005,1.435926437378,10.645393371582
74,0.750895500183,-0.031144371256,0.140441045165,0.021902700886,-2.245428323746,2.229929924011,12.721250534058
75,0.759890317917,-0.194267019629,0.173755735159,0.022274984047,-2.465593576431,2.412234783173,11.956967353821
76,0.769837141037,-0.248307615519,0.023588407785,0.019709523767,-2.915806293488,0.737031400204,12.432186126709
77,0.776589155197,-0.120667763054,-0.102188020945,-0.000735369045,-2.297651052475,-0.236940681934,12.051298141479
78,0.789247035980,-0.008674931712,-0.156422302127,0.006753204390,-1.570119261742,-2.113849639893,9.897343635559
79,0.799927473068,0.147632077336,-0.177596122026,-0.019199207425,1.104485750198,-3.298108577728,6.221101760864
80,0.806190967560,0.263353019953,-0.116540327668,-0.029248066247,0.588823437691,-1.345362663269,6.849824905396
81,0.819110631943,0.201173618436,0.005880316719,-0.021454341710,-0.909862637520,2.690859079361,9.647836685181
82,0.836077690125,0.061860132962,0.062628984451,-0.020070455968,0.399506300688,1.724995136261,8.308825492859
83,0.842550754547,-0.009112543426,-0.015205509029,-0.032638311386,0.413913100958,1.537944197655,8.361270904541
84,0.849929809570,-0.065392948687,0.032534837723,-0.035662282258,-0.811128616333,1.642768263817,11.270879745483
85,0.859090089798,-0.033723480999,0.013900838792,-0.040892034769,0.491311937571,1.089159488678,9.526774406433
86,0.866864442825,-0.005903840531,-0.085254348814,-0.031801171601,1.146376252174,0.067357584834,9.315530776978
87,0.879191637039,0.071088224649,-0.040909670293,-0.020635761321,1.211380004883,-1.138044238091,9.816866874695
88,0.889084577560,0.142703175545,-0.001114096842,-0.003725246526,3.192113399506,-3.132450342178,6.913177013397
89,0.897541761398,0.131659239531,-0.073401324451,0.013834927231,3.009140014648,-1.103743553162,8.070292472839
90,0.909164905548,0.111380800605,-0.037662502378,0.021507555619,2.292369842529,-0.036329127848,9.768643379211
91,0.919529438019,0.051310170442,0.017505973577,0.034390944988,3.611464500427,0.505570471287,7.124817848206
92,0.926275968552,-0.044926393777,-0.040551111102,0.041588712484,3.169871807098,1.269312977791,9.868824005127
93,0.942470788956,-0.080493219197,-0.040849380195,0.043033380061,2.960130691528,0.058609306812,11.162235260010
94,0.949509143829,-0.063235387206,-0.004966252483,0.039025325328,4.209514617920,-0.173581525683,7.204213619232
95,0.956091880798,-0.034036073834,-0.022214032710,0.030419651419,4.232598781586,-0.308420985937,8.576490402222
96,0.969422817230,-0.049961242825,-0.020898394287,0.030111264437,3.628935337067,0.066454544663,9.565903663635
97,0.984197139740,-0.030660999939,0.061125308275,0.034440223128,1.211472272873,-6.118737220764,13.865865707397
98,0.986115455627,-0.093339793384,0.007313273381,0.033080153167,2.080600023270,-11.915052413940,5.120670795441
99,1.002000570297,-0.500898778439,-0.179861158133,0.055255182087,-10.144740104675,13.065011024475,15.253142356873
100,1.009169816971,-0.161602348089,-0.065542243421,0.052925597876,-1.668206691742,-1.339116096497,13.335289001465
101,1.015745401382,-0.155599564314,-0.048174478114,0.111860007048,3.070888519287,-0.233589589596,-6.830339431763
102,1.029257535934,0.090424530208,0.110653147101,-0.001376584172,-4.820013523102,-2.299300193787,13.280615806580
103,1.047091245651,0.134109303355,0.432894051075,0.053357332945,-4.113267421722,-5.718211650848,16.604627609253
104,1.053045988083,0.236990615726,0.127975136042,-0.002948197071,-2.054657220840,-0.297109127045,8.130992889404
105,1.059102535248,0.197794303298,0.034312020987,-0.066332511604,-5.947696208954,-1.306910991669,19.055372238159
106,1.069448947906,0.116554252803,0.030035855249,-0.050420224667,-2.295741081238,0.428969651461,10.336127281189
107,1.076171636581,-0.040239736438,-0.193762093782,-0.050695650280,-2.093386888504,1.349985480309,11.058199882507
108,1.089533567429,-0.171450242400,-0.117565438151,-0.047454558313,-2.687125921249,1.471312761307,11.559283256531
109,1.099301099777,-0.159330084920,0.000223698094,-0.015159899369,0.787421941757,-0.214670747519,5.113651275635
110,1.105790853500,-0.032637048513,0.062524572015,-0.013762541115,-1.918694019318,-1.176202178001,11.702078819275
111,1.119404315948,0.135568484664,0.165945366025,-0.021074475721,-1.208578944206,-2.065553903580,10.000617980957
112,1.132377862930,0.213777139783,0.098143473268,-0.004505219404,-1.597012519836,0.186393827200,9.328274726868
113,1.142507791519,0.236555457115,-0.003200164065,-0.010300831869,-3.765437602997,1.814427971840,14.790230751038
114,1.149569272995,0.110989332199,-0.105261586607,0.002475539222,-1.913282394409,1.134024500847,11.477943420410
115,1.162542819977,-0.056739542633,-0.193083882332,0.002404653700,0.078943930566,0.812228560448,7.115269184113
116,1.169618368149,-0.155063807964,-0.177263930440,0.003946643323,-0.320732444525,-0.231167137623,8.003978729248
117,1.179424047470,-0.176841899753,-0.060021173209,0.027874529362,-0.115991301835,-1.007121801376,7.766208171844
118,1.189666748047,-0.104910016060,-0.014548941515,0.026204982772,0.423759043217,-1.388597369194,6.165451526642
119,1.195808887482,-0.009875884280,0.077787324786,0.043151933700,0.066186837852,-1.310855746269,8.421379089355
120,1.211169958115,0.068850740790,0.037331376225,0.032343488187,-0.218425095081,0.146709084511,9.901121139526
121,1.219265222549,0.074812673032,-0.000573498546,0.042306367308,0.096920676529,0.512442111969,9.619644165039
122,1.225963592529,0.034992549568,-0.011864750646,0.050570156425,0.947208642960,0.391274094582,8.317000389099
123,1.239473342896,-0.005446650553,-0.022924968973,0.041345812380,1.173215270042,-0.289880782366,8.356489181519
124,1.249746561050,-0.058940481395,-0.057628236711,0.032476913184,1.499624848366,0.611202120781,9.335033416748
125,1.255836486816,-0.099340192974,-0.064084880054,0.018846126273,2.238177061081,0.657226324081,8.265134811401
126,1.269298791885,-0.099087715149,-0.072187498212,-0.005265404005,3.000680923462,-0.189807206392,8.130258560181
127,1.279263973236,-0.059272609651,-0.030230611563,-0.007445839699,2.555480480194,0.001080332790,10.064656257629
128,1.286973714828,0.013440161012,-0.060147564858,-0.018156854436,3.536141633987,0.561914265156,8.120893478394
129,1.299535751343,0.036301575601,-0.058266945183,-0.028236864135,2.964402198792,0.720207929611,10.075203895569
130,1.309490203857,0.032578248531,-0.023852160200,-0.027615962550,3.038077354431,0.076340548694,10.442545890808
131,1.320375442505,0.008077388629,-0.054786365479,-0.029465368018,4.158778667450,1.026667237282,8.434809684753
132,1.331397533417,0.031626127660,-0.070562981069,-0.026605473831,3.702435493469,0.402758270502,9.535717010498
133,1.346183538437,0.052849866450,-0.024106359109,-0.020652426407,4.348754405975,0.228259384632,7.673652172089
134,1.352703094482,0.080761380494,0.000994845293,-0.018670592457,3.762928724289,0.798175930977,9.142134666443
135,1.360630273819,0.257070988417,-0.021318444982,-0.050178695470,2.915636539459,-5.497491836548,8.728956222534
136,1.369405984879,0.385095387697,-0.032079219818,0.033299211413,-3.859015941620,-21.725570678711,14.600465774536
137,1.375946760178,-0.023242745548,-0.065634869039,-0.015928208828,-2.931800842285,0.337129801512,6.842631340027
138,1.389113187790,0.150902539492,-0.010624764487,-0.100205987692,-3.002678871155,-4.716619491577,2.313265562057
139,1.399455070496,-0.070580981672,0.273832827806,-0.010798998177,-3.837923526764,4.561350822449,10.102093696594
140,1.407801628113,-0.124734118581,0.417298525572,-0.033986568451,-0.775944232941,4.514456748962,7.462469577789
141,1.419177770615,-0.309523493052,0.085578687489,0.000021068379,-4.860064506531,3.344392538071,15.151638031006
142,1.429174184799,-0.314603209496,0.073473930359,0.057624030858,-5.440293788910,0.859149813652,18.083398818970
143,1.436371326447,-0.182259574533,-0.001873153378,0.051404844970,-2.968018531799,-1.259488105774,12.081729888916
144,1.456624507904,0.061348915100,-0.167675018311,0.052218616009,-2.911120414734,-3.051335096359,11.828161239624
145,1.464317321777,0.212742060423,-0.149280145764,0.043206233531,-1.529627680779,-1.040583729744,9.078891754150
146,1.472048521042,0.229388237000,-0.018726583570,0.013862979598,-0.046205643564,0.894725501537,7.155300140381
147,1.479926586151,0.100466236472,0.094424806535,0.017515743151,-1.924999952316,2.962596893311,11.013522148132
148,1.489374399185,-0.093253925443,0.150815159082,0.010813714936,-2.196538686752,1.585405588150,12.213640213013
149,1.496194601059,-0.201355859637,0.110929131508,0.022403521463,-1.660751342773,2.029154777527,9.010124206543
150,1.509799480438,-0.280305117369,0.004870191216,0.014972746372,-3.602907657623,-1.507130861282,13.965167045593
151,1.519163131714,-0.113005682826,-0.121384650469,-0.006291292142,-2.952229022980,-2.595316648483,12.302732467651
152,1.525980949402,0.016079459339,-0.200131163001,-0.006053527351,0.044615846127,-4.184984207153,7.806719303131
153,1.539203166962,0.193674474955,-0.187132075429,-0.007642210927,-0.826376736164,-1.550560951233,8.744265556335
154,1.551231861115,0.232072919607,-0.051740001887,-0.005959049333,0.062214769423,1.191070318222,7.331247806549
155,1.562514305115,0.130777716637,-0.013539987616,-0.014970639721,0.859645187855,1.459169507027,5.392986774445
156,1.569154739380,-0.045931495726,0.040656361729,-0.011952353641,-0.348646223545,-0.228834703565,9.667840003967
157,1.579363584518,-0.113246120512,0.063229486346,-0.012310529128,0.281593918800,-2.781949043274,8.675666809082
158,1.588955402374,-0.135038778186,-0.001052008709,-0.031080186367,1.440227270126,-3.814660787582,6.937363624573
159,1.605412960052,-0.062980450690,-0.034811142832,-0.044643122703,0.123346872628,-4.951047897339,9.628604888916
160,1.609242439270,0.014466420747,-0.009195957333,-0.043640367687,1.329635858536,-4.477863311768,8.942635536194
161,1.620359659195,0.110318347812,-0.045220416039,-0.026870328933,2.156705617905,-2.043065786362,7.439352035522
162,1.629387140274,0.101955398917,-0.047802381217,-0.006934759673,1.787585973740,0.538684427738,8.720406532288
163,1.639458179474,0.082881495357,-0.009076102637,0.022383583710,1.757596373558,1.876633644104,9.077978134155
164,1.645800590515,0.039934456348,-0.008295188658,0.027586851269,3.322917938232,1.023218035698,8.223989486694
165,1.666097640991,-0.016185218468,-0.024685604498,0.033354908228,3.593551635742,-0.428056389093,7.773474693298
166,1.672758579254,-0.062787912786,-0.012891475111,0.025888705626,2.980738878250,-0.578508913517,9.624847412109
167,1.679121494293,-0.082855328918,-0.007125864271,0.021171385422,3.621816396713,-1.282911896706,9.394742012024
168,1.689795255661,-0.069038428366,-0.038047157228,0.026263630018,3.595559120178,-0.349160939455,9.583973884583
169,1.706640720367,-0.049836486578,-0.012587072328,0.028915524483,3.621032238007,0.126549407840,9.696202278137
170,1.709390640259,-0.063674136996,-0.010847754776,0.033867623657,3.905453681946,0.800163686275,8.865142822266
171,1.719193696976,-0.091222509742,0.022318778560,0.045333839953,2.777339220047,-2.738307952881,9.487892150879
172,1.730536222458,-0.026683922857,0.040930900723,0.037740394473,2.580681324005,-8.151167869568,14.413947105408
173,1.736974239349,-0.453358232975,-0.066246747971,0.056663781404,-4.545474052429,-0.852352976799,7.526332855225
174,1.749454736710,-0.030060451478,-0.208759114146,0.022114090621,-1.061092495918,-5.044939994812,7.373754978180
175,1.766191005707,-0.094817325473,-0.014420947060,0.093317635357,0.907777667046,-0.332188397646,-4.902240753174
176,1.772566556931,0.086439259350,0.150440499187,0.003228100017,-2.332869291306,0.309689581394,8.085299491882
177,1.779227733612,0.113456316292,0.367438465357,0.048021636903,-5.649290084839,-4.506228923798,20.499799728394
178,1.789398193359,0.252924740314,0.180753231049,0.028514504433,-2.328584432602,2.216959476471,9.212285041809
179,1.796252250671,0.214908823371,0.001937874593,-0.063555687666,-4.302238941193,2.608425378799,15.082496643066
180,1.809174537659,0.084306098521,-0.027907880023,-0.049433495849,-2.878695726395,1.594292521477,12.083856582642
181,1.819227695465,-0.065555922687,-0.183550521731,-0.049479153007,-2.604500293732,0.585957825184,11.942477226257
182,1.825796842575,-0.179894194007,-0.105275630951,-0.046817522496,-2.083481788635,1.948781013489,10.291378974915
183,1.839121818542,-0.124031990767,0.050651777536,-0.009064576589,0.891665756702,0.004691768438,5.614664077759
184,1.849581480026,0.010345099494,0.096195563674,-0.001935927197,-1.808794975281,-1.652478337288,11.256813049316
185,1.856849908829,0.196395382285,0.161478385329,-0.010038730688,-2.604613065720,-2.182575702667,12.038156509399
186,1.872548103333,0.259891986847,0.120079651475,0.006917277351,-1.442635536194,-0.255803078413,9.108007431030
187,1.879214048386,0.223574697971,-0.023047143593,0.000579790212,-3.400962829590,2.040168285370,14.560208320618
188,1.885935783386,0.064403459430,-0.111520260572,0.001837868709,-2.464433193207,3.247118473053,13.249473571777
189,1.900943279266,-0.129169866443,-0.177285492420,0.006640427280,0.035106409341,1.810139179230,5.710342407227
190,1.909807443619,-0.197825446725,-0.166462674737,0.012546801940,0.580335736275,2.194600343704,6.689932346344
191,1.916301250458,-0.180085003376,-0.025714848191,0.021336629987,-0.102426402271,-1.751553416252,7.723190307617
192,1.929459333420,-0.088934540749,0.011438258924,0.031102258712,1.309457898140,-2.126714468002,5.612133502960
193,1.939236164093,0.025687718764,0.066965758801,0.043549098074,-0.019886851311,-2.974558353424,10.303789138794
194,1.945851564407,0.110520750284,0.085441708565,0.054167468101,0.483905941248,-0.121720634401,8.755559921265
195,1.959741353989,0.104772508144,-0.013012198731,0.039184745401,0.899954795837,-0.312551081181,8.062206268311
196,1.978820323944,0.031723022461,-0.018276423216,0.037108961493,0.505899965763,-0.145262777805,9.629049301147
197,1.982752084732,-0.043605569750,-0.016932807863,0.030166435987,1.047938227654,-0.755496263504,9.389944076538
198,1.996638536453,-0.074963353574,-0.042742397636,0.026217751205,1.706325650215,-0.657470285892,9.856966018677
199,1.999223470688,-0.062265258282,-0.044759955257,0.021890923381,2.081515312195,0.064169704914,8.886829376221
200,2.006615161896,-0.016263119876,-0.048667952418,0.000042850152,2.734381198883,-0.205633655190,8.332388877869
201,2.024367094040,0.003162912559,-0.022405570373,-0.007337986026,2.791645288467,-0.015477601439,9.860356330872
202,2.029446601868,0.049092851579,-0.061767648906,-0.025284390897,3.186172485352,-0.572226822376,8.447975158691
203,2.038075447083,0.048104330897,-0.050210092217,-0.020425250754,3.527221918106,1.353197693825,8.953405380249
204,2.049518823624,0.033713795245,-0.028871472925,-0.031507346779,3.213643550873,1.088406085968,10.167073249817
205,2.059224605560,-0.002242499031,-0.039732884616,-0.023749625310,3.799701929092,1.558101415634,8.874455451965
206,2.072483062744,-0.008025185205,-0.056045852602,-0.023590885103,3.800153493881,-0.398668736219,9.426887512207
207,2.079197883606,-0.003116955748,-0.021949771792,-0.017215482891,4.451961994171,0.515272617340,7.477775096893
208,2.089316129684,-0.123681604862,0.042580075562,0.004476686940,-1.946434855461,3.529725790024,19.415102005005
209,2.095793724060,-0.396648466587,0.066893011332,0.063563436270,-0.521342456341,1.604104280472,10.174286842346
210,2.112637519836,0.317559331656,-0.219950661063,-0.012398149818,-3.241204261780,13.327419281006,11.975164413452
211,2.121313333511,0.173309937119,-0.015358982608,-0.035700008273,-3.151479959488,-7.108386039734,9.635207176208
212,2.126659154892,0.202602565289,0.173559978604,-0.111978143454,3.258615732193,2.774043798447,-2.999358892441
213,2.139568805695,-0.129419356585,0.242613226175,-0.065353050828,-3.773936271667,-1.299896955490,10.617408752441
214,2.149630784988,-0.248532086611,0.397788524628,-0.000716061331,-5.930344581604,4.267398834229,21.839677810669
215,2.155918598175,-0.354481309652,0.183875784278,-0.008612006903,-1.871385931969,0.871891558170,8.203438758850
216,2.169206619263,-0.234284803271,-0.041690405458,0.042243823409,-5.092564582825,-3.617929220200,15.030709266663
217,2.179603576660,-0.011608295143,-0.077866867185,0.057325929403,-4.597714424133,-3.327921390533,15.695361137390
218,2.186150789261,0.185759499669,-0.135491371155,0.040616884828,-0.258896857500,-3.309467315674,6.213258743286
219,2.199474334717,0.299938321114,-0.108758039773,0.042821433395,-1.245205283165,-0.837309360504,8.145008087158
220,2.210266113281,0.182683184743,0.125932514668,0.021768946201,-1.551600575447,1.832920193672,10.150229454041
221,2.217754125595,-0.018709773198,0.136609777808,-0.000216450077,-0.391163349152,2.907718896866,8.109309196472
222,2.229197978973,-0.154556855559,0.119316875935,0.005480628461,-3.086125135422,1.320614337921,13.464725494385
223,2.244945764542,-0.216661751270,0.118178784847,0.028145790100,-3.216075658798,0.293188035488,13.474431037903
224,2.246101617813,-0.148280531168,-0.060237552971,0.019958458841,-1.907454371452,-1.223151564598,9.667698860168
225,2.259252071381,0.001812671544,-0.201732009649,0.024384567514,-2.017614841461,-0.249196931720,10.373229980469
226,2.269598245621,0.180707290769,-0.168135121465,0.002388666850,-1.365558028221,-2.655852556229,10.426327705383
227,2.284093618393,0.257017314434,-0.111639194191,-0.035083163530,1.299657702446,-2.358406543732,4.623249530792
228,2.289385318756,0.174557566643,-0.045271348208,-0.027416165918,0.598878085613,0.085237331688,6.731364250183
229,2.301253795624,0.016805719584,0.051962215453,-0.008615747094,-0.300387561321,3.056932449341,8.349046707153
230,2.306572437286,-0.136300802231,0.068229399621,-0.006193285342,0.630622088909,3.165889739990,7.936663627625
231,2.320213317871,-0.183858513832,-0.004872236867,0.006410297938,0.354024678469,1.363943338394,8.858121871948
232,2.329066514969,-0.202880799770,-0.004967499990,-0.005074407440,0.066755011678,0.083378568292,9.923319816589
233,2.336011171341,-0.118989802897,-0.018040604889,-0.020589830354,1.725111961365,-0.139742553234,7.065529346466
234,2.349378347397,-0.009596963413,-0.069553405046,-0.029446028173,1.865086793900,-2.006704330444,9.355169296265
235,2.359226226807,0.111999526620,-0.043940335512,-0.014775214717,1.231811881065,-0.382012873888,10.868979454041
236,2.368044137955,0.164933547378,-0.008218648843,0.007819234394,2.538604736328,0.738296151161,8.870218276978
237,2.385842561722,0.134144037962,-0.023159774020,0.030409403145,3.031618595123,2.015187263489,7.813836097717
238,2.392528295517,0.062253944576,-0.031690526754,0.041502978653,2.524259090424,2.186783075333,10.216887474060
239,2.399287700653,-0.010308949277,0.003059905022,0.041518561542,3.119644403458,0.740674734116,9.416845321655
240,2.408306837082,-0.049908243120,-0.013480333611,0.043202109635,3.704010963440,-0.196734428406,8.565110206604
241,2.419350147247,-0.026079952717,-0.035427480936,0.034627646208,3.310013055801,-0.831995785236,9.774879455566
242,2.425806045532,-0.012537035160,-0.021937759593,0.029560778290,3.760466098785,-0.902361810207,9.257886886597
243,2.439327001572,-0.011873536743,-0.002336791251,0.021366188303,4.305451869965,-0.161915391684,8.527599334717
244,2.449439287186,-0.083986543119,0.010680421256,0.015816962346,4.119420528412,-0.002426266437,8.676736831665
245,2.455777883530,0.048865232617,0.040137596428,0.027729237452,-1.120970010757,-1.942122459412,17.221328735352
246,2.469271421432,0.185934931040,0.077292680740,-0.032952353358,-0.070237271488,-1.662632465363,15.457059860229
247,2.479314088821,-0.339909374714,-0.170315012336,0.001424922608,-3.543282508850,-3.077438116074,10.047869682312
248,2.493107080460,-0.083077542484,-0.193941369653,0.009750569239,-3.761487483978,1.331063508987,9.933969497681
249,2.503405332565,-0.119980998337,0.163405895233,0.085079044104,1.295742034912,-3.891911029816,-0.034583009779
250,2.509348630905,0.069283999503,0.213463753462,0.038047902286,-0.629542410374,1.410046815872,2.223955154419
251,2.516183853149,0.148747131228,0.243016287684,-0.022621629760,-5.632183074951,-7.403895378113,22.306045532227
252,2.529288291931,0.291086733341,0.198987528682,-0.019532712176,-2.859954118729,-3.687905073166,9.875260353088
253,2.539168119431,0.292594850063,-0.017501940951,-0.043773677200,-3.621628046036,-0.267527818680,12.716457366943
254,2.545833349228,0.116831488907,-0.041245073080,-0.038861919194,-4.135179996490,3.578631401062,14.010499000549
255,2.559158325195,-0.103147506714,-0.155070230365,-0.030487388372,-0.746062338352,2.950772523880,7.329028606415
256,2.571935176849,-0.262790560722,-0.138035565615,-0.038715232164,-1.730317592621,1.509411454201,10.089327812195
257,2.575805187225,-0.165846318007,0.095576494932,-0.010739281774,-0.546098172665,-1.068475008011,7.966766834259
258,2.601482629776,0.002145798411,0.083330802619,0.001466746442,-0.459532976151,-1.788557171822,8.156516075134
259,2.602459669113,0.159489139915,0.165542855859,-0.010571047664,-3.155336380005,-2.244933605194,12.541819572449
260,2.612750768661,0.217834219337,0.149098932743,0.000353303272,-1.420481562614,-1.551440596581,10.562726020813
261,2.621695280075,0.196599245071,-0.050375878811,-0.008203064092,-2.283423185349,1.864913821220,10.938365936279
262,2.635704040527,0.074385896325,-0.134906873107,0.002792269457,-2.592381000519,2.291065931320,11.827230453491
263,2.636290311813,-0.106212824583,-0.177106916904,0.007571865804,-0.284737616777,2.374738693237,8.191717147827
264,2.649813175201,-0.189238354564,-0.157453417778,0.014070397243,0.213343456388,2.759039640427,7.014151096344
265,2.664333105087,-0.188212797046,-0.057277139276,0.031626470387,-0.359051406384,-0.628876745701,7.764467716217
266,2.666543006897,-0.068588927388,0.049166779965,0.044499784708,0.991407990456,-1.415623664856,6.076619148254
267,2.679093837738,0.074624694884,0.052206784487,0.037156030536,0.269056200981,-3.511723518372,10.043839454651
268,2.695921897888,0.195638671517,0.021197563037,0.021679446101,0.747228026390,-1.225655794144,8.752564430237
269,2.702542066574,0.192660182714,-0.018880067393,0.026846066117,0.854437947273,-1.421611428261,8.849914550781
270,2.709201812744,0.086633801460,-0.030237758532,0.033153742552,0.698565483093,0.963504850864,10.063409805298
271,2.722485303879,-0.024863883853,-0.064013503492,0.025964278728,0.784682154655,1.140245795250,10.864952087402
272,2.729160547256,-0.110268786550,-0.062206506729,0.019743282348,1.500538110733,0.680509626865,9.128774642944
273,2.739151477814,-0.120988585055,-0.049127109349,0.012106280774,3.141347169876,-0.399875015020,8.064826965332
274,2.757261037827,-0.064421601593,-0.042309049517,-0.005548029207,2.174324750900,-0.831898450851,9.796388626099
275,2.762765407562,0.003202734515,-0.027698470280,-0.018436089158,3.201270818710,-1.249717831612,8.252908706665
276,2.770940542221,0.048457629979,-0.041604764760,-0.031731754541,3.570460796356,-0.428241848946,8.466147422791
277,2.784084320068,0.066839329898,-0.014667204581,-0.025907376781,2.906705379486,0.316114425659,9.856043815613
278,2.792304277420,0.061737235636,-0.025574102998,-0.028996719047,4.064907073975,0.840374290943,8.292119026184
279,2.803206920624,0.047104753554,-0.058161329478,-0.028508855030,3.873512268066,0.222208052874,8.914646148682
280,2.809079885483,0.042201124132,-0.017424331978,-0.019827058539,4.121819019318,0.708196759224,8.704685211182
281,2.818421125412,0.096773602068,-0.015247145668,-0.024752603844,4.630395412445,0.466011583805,8.030763626099
282,2.829148530960,-0.062048349530,0.022653380409,0.020490650088,0.413794875145,-0.230040624738,19.270927429199
283,2.839140653610,-0.501708388329,0.111821494997,0.103393912315,-2.562571763992,-4.836120128632,7.381750583649
284,2.846426725388,0.040171984583,-0.112757280469,-0.005664942320,-1.183583855629,10.308977127075,11.583614349365
285,2.859285831451,0.130941003561,-0.043300185353,-0.044832576066,-4.404561996460,-1.245523571968,6.226561069489
286,2.869165182114,0.064246371388,0.238485082984,-0.102193325758,1.579991698265,7.669393539429,2.709697246552
287,2.876928091049,-0.133847758174,0.279145836830,-0.095514878631,-2.063823699951,-0.129901662469,7.092021465302
288,2.893692731857,-0.205387949944,0.287887543440,0.000874098856,-8.046321868896,2.845149993896,24.200294494629
289,2.905774354935,-0.285061210394,0.219310641289,0.031413841993,-3.008447647095,4.035065650940,11.171483039856
290,2.912607908249,-0.215758472681,-0.010201584548,0.049752101302,-3.251845121384,-0.693455636501,11.374764442444
291,2.927310466766,-0.021652517840,-0.124443396926,0.054807644337,-4.418920993805,-2.384007215500,15.156243324280
292,2.931277513504,0.158843904734,-0.122110396624,0.041223220527,-1.124539613724,-1.932093620300,7.571327209473
293,2.938576459885,0.241855844855,-0.090763151646,0.041268236935,-0.537389695644,-1.158597350121,7.621498107910
294,2.947844505310,0.145008817315,0.103084452450,0.032659135759,-1.473294854164,2.219194889069,10.847032546997
295,2.961130142212,-0.052382387221,0.153869077563,0.017860855907,-0.456081688404,2.790952444077,8.401483535767
296,2.967739582062,-0.195601016283,0.123259738088,0.019015474245,-2.157046556473,0.935051262379,11.485275268555
297,2.977686166763,-0.221361234784,0.083917111158,0.028549339622,-3.311463832855,0.298081755638,13.860033035278
298,2.991201877594,-0.122466266155,-0.045319028199,0.015777438879,-2.630694389343,-1.390286445618,10.981163024902
299,3.001513004303,-0.025901595131,-0.168576672673,0.013937260024,-1.247041463852,-0.233744382858,9.458322525024
300,3.010608911514,0.126451373100,-0.230922162533,-0.005319249351,-1.097075939178,-1.816337466240,9.138751029968
301,3.027587175369,0.212179079652,-0.118742644787,-0.038315530866,0.284019768238,-3.450807809830,8.618310928345
302,3.028019428253,0.201858133078,0.000647112960,-0.027097310871,0.981944084167,-0.293090909719,4.903567790985
303,3.038155078888,-0.003850035369,0.037604089826,-0.000717829913,0.134259447455,2.923927307129,8.560925483704
304,3.051182508469,-0.116212733090,0.051718384027,-0.001320069190,-0.486622184515,2.335619211197,9.922170639038
305,3.058307170868,-0.153097957373,0.027915170416,0.001977222972,1.571915268898,0.605294167995,6.255506992340
306,3.067809343338,-0.140250608325,-0.023169642314,-0.013677353039,0.092883206904,-1.393095850945,9.300199508667
307,3.084200382233,-0.075702801347,-0.030191013590,-0.025643356144,0.453519463539,-1.627247095108,10.060950279236
308,3.087854146957,0.028449233621,-0.052938267589,-0.029473301023,2.342466115952,-1.866125941277,7.121621608734
309,3.098239421844,0.108424268663,-0.045530974865,-0.014034785330,2.087742090225,-0.779824197292,9.336969375610
310,3.111350297928,0.147916242480,0.000843804446,0.006050014403,1.880756378174,1.187369227409,10.560398101807
311,3.123635053635,0.092016093433,-0.018967242911,0.029859567061,3.452999353409,1.807013988495,7.075466632843
312,3.128638267517,-0.003180613741,-0.035114713013,0.041251454502,3.173126935959,3.023736953735,8.597299575806
313,3.145135402679,-0.081672474742,0.013858802617,0.044640362263,2.223014354706,1.624390244484,11.015701293945
314,3.148138761520,-0.100396938622,-0.012409519404,0.039600867778,3.527020454407,0.095989078283,8.838822364807
315,3.157683134079,-0.083471722901,-0.049046147615,0.030292911455,3.734050273895,-1.234855055809,9.136070251465
316,3.171030282974,-0.055143285543,-0.000064091029,0.028607420623,3.705616474152,-0.096044443548,9.440061569214
317,3.177755832672,-0.055555608124,-0.002405308885,0.027167223394,4.536077022552,-0.229610800743,8.713283538818
318,3.189702272415,-0.090806923807,-0.021666139364,0.020959008485,4.123797416687,-0.541961491108,8.434185028076
319,3.201455116272,-0.143072247505,0.180695265532,0.000326510053,1.843204617500,-1.853594303131,13.917718887329
320,3.214466810226,0.088898152113,-0.101782321930,-0.070289351046,-3.870842933655,11.535593986511,12.898653984070
321,3.223277091980,0.055991183966,-0.208931311965,0.026615345851,-7.678009033203,-2.259747982025,21.048862457275
322,3.232257127762,-0.023950241506,-0.112351909280,0.022610731423,-5.762704849243,5.509914398193,6.013021945953
323,3.238233327866,-0.029260139912,0.182057350874,0.082113593817,-1.179427266121,-6.051646709442,6.468874931335
324,3.247771501541,0.114745311439,0.356756329536,0.067500963807,-2.000612258911,-0.963408589363,5.310962200165
325,3.261603116989,0.271136194468,0.154366180301,-0.063424862921,-2.782726526260,-4.384528636932,14.719079017639
326,3.273553609848,0.276292085648,0.095803931355,-0.070049419999,-4.246338844299,-3.281981706619,13.613249778748
327,3.281980991364,0.182885870337,0.001561342156,-0.066016077995,-3.514717340469,1.654804229736,12.145807266235
328,3.291231393814,0.014326147735,-0.059549894184,-0.060034330934,-3.369331836700,2.076718568802,13.877473831177
329,3.300281286240,-0.129524305463,-0.129472240806,-0.020267702639,-0.141691192985,2.395922899246,5.636457443237
330,3.307914018631,-0.243413940072,-0.102069780231,-0.021949175745,-1.054259181023,0.413009911776,8.965425491333
331,3.321995019913,-0.091019287705,0.127347499132,-0.001400630455,-1.487911939621,-2.340603351593,10.289644241333
332,3.327777147293,0.075598403811,0.122099198401,0.003802495077,-0.077938862145,-2.817222595215,7.694797515869
333,3.338851690292,0.217666909099,0.113543495536,-0.005279093981,-3.088959932327,-1.046826362610,12.789822578430
334,3.351196527481,0.228507786989,0.155111044645,0.012420677580,-2.711615562439,-0.421383529902,11.298723220825
335,3.358150005341,0.089288450778,-0.062500000000,0.010065263137,-1.534252524376,1.924828648567,10.695518493652
336,3.368352651596,-0.060688946396,-0.188726827502,0.004000164568,-2.591100454330,3.088624715805,12.644581794739
337,3.381209135056,-0.192880406976,-0.140332266688,0.019392076880,-0.644071578979,2.755332946777,7.830803871155
338,3.390072584152,-0.242937147617,-0.086772449315,0.032477088273,1.338952898979,-0.024157626554,4.153862953186
339,3.402511358261,-0.154246896505,-0.041156411171,0.034993276000,-0.309947550297,-1.324895620346,8.051087379456
340,3.411599397659,0.025043133646,0.093798235059,0.037915274501,1.028422951698,-2.636072874069,6.462791442871
341,3.424619913101,0.135944545269,0.026857299730,0.031810328364,0.146681562066,-1.438082218170,9.212321281433
342,3.431116580963,0.202758252621,0.037586640567,0.035963669419,-0.808760643005,0.070162333548,11.488871574402
343,3.441022396088,0.153247907758,0.008616102859,0.043882232159,1.387712001801,1.839033842087,8.165108680725
344,3.448354482651,0.074312217534,-0.051039729267,0.039599616081,1.173476934433,0.703129708767,9.127391815186
345,3.457780122757,-0.046851381660,-0.050646450371,0.040326602757,0.502252340317,1.156161069870,11.271438598633
346,3.471095800400,-0.129188463092,-0.045339938253,0.023562218994,2.095069885254,0.887208402157,8.988859176636
347,3.477804899216,-0.146304771304,-0.075768582523,-0.002103347331,2.235471725464,0.371137499809,8.924048423767
348,3.487820625305,-0.066446319222,-0.027619499713,-0.020037474111,2.479314088821,-2.035031080246,9.727160453796
349,3.504479885101,0.009500086308,-0.031495362520,-0.023432526737,3.787833690643,-1.594527482986,7.292067050934
350,3.507655620575,0.072993494570,-0.033590812236,-0.036129362881,2.727076292038,-0.331572860479,10.213192939758
351,3.533117532730,0.092134006321,-0.004638122860,-0.034217577428,3.745384454727,0.876627981663,8.374905586243
352,3.533133029938,0.028051346540,-0.044843453914,-0.031188119203,3.727609395981,1.308228254318,8.961111068726
353,3.539232254028,0.003468394978,-0.034775111824,-0.031401213259,3.088816165924,1.801600098610,10.414465904236
354,3.550177812576,0.007277468219,-0.018730234355,-0.027239400893,4.412925720215,0.135237097740,8.306016921997
355,3.561187505722,0.004347620532,0.028351224959,-0.034228403121,1.714781403542,5.605348587036,12.276564598083
356,3.567970752716,-0.155014753342,-0.138728454709,-0.016986249015,1.367748022079,8.258460044861,10.144102096558
357,3.577662706375,-0.401968210936,0.199065268040,0.047465112060,-2.930340766907,-6.499212265015,12.637982368469
358,3.591322898865,0.135312333703,0.101511307061,0.012360006571,-0.764524102211,5.419874668121,6.196284770966
359,3.597673416138,0.144551485777,-0.004744023550,-0.042218830436,-4.362977504730,-3.348126649857,5.110740661621
360,3.607648611069,0.046935223043,0.112725354731,-0.051378890872,-1.552985906601,6.157370090485,6.802171707153
361,3.624663591385,-0.137298941612,0.266645938158,-0.064951665699,-2.773918867111,-0.122462637722,8.352884292603
362,3.634397268295,-0.272990733385,0.337922692299,-0.004917579703,-5.881587505341,0.744929909706,18.881408691406
363,3.641059637070,-0.282306164503,0.157460331917,0.012675141916,-3.144327163696,2.065486431122,12.999950408936
364,3.653066158295,-0.213989302516,-0.091117210686,0.025323798880,-4.918978214264,-3.557148933411,14.987383842468
365,3.658284664154,-0.014817782678,-0.069050751626,0.056886699051,-4.642796516418,-2.276300430298,15.528387069702
366,3.672391176224,0.177894696593,-0.110110200942,0.042407903820,-0.252355515957,-2.491605997086,6.836293220520
367,3.680953502655,0.303667634726,-0.115242816508,0.030815500766,-0.733994722366,0.033818848431,7.022755146027
368,3.687841176987,0.190269395709,0.068357467651,0.017024192959,-1.107531428337,0.645358264446,9.888768196106
369,3.698481082916,0.006583596580,0.126834616065,0.001709742937,-0.767587482929,2.528561592102,9.164039611816
370,3.711298227310,-0.165325343609,0.114437922835,0.014277096838,-2.549549579620,1.511638045311,12.596654891968
371,3.718919754028,-0.212258398533,0.082239501178,0.023289414123,-2.828957080841,0.984822928905,12.733711242676
372,3.731108665466,-0.146884366870,-0.050584983081,0.021770518273,-2.084191560745,-0.877012073994,10.861536026001
373,3.741433620453,-0.016295680776,-0.185988530517,0.015609707683,-1.839432001114,0.369242191315,11.260484695435
374,3.747921228409,0.155307441950,-0.173540696502,-0.001222878695,-0.579059600830,-0.691641926765,7.491560459137
375,3.759379863739,0.227120980620,-0.169446408749,-0.034646544605,0.865027725697,-2.824578285217,6.305283069611
376,3.771424293518,0.187743350863,-0.048321045935,-0.034395642579,0.237290918827,-3.301294088364,8.217252731323
377,3.779242277145,0.070485197008,0.041423778981,-0.015841653571,0.647379100323,-0.978889703751,6.117853641510
378,3.792280435562,-0.090882278979,0.043372251093,-0.000895037316,0.709071457386,0.800096869469,9.574690818787
379,3.801096200943,-0.155872941017,0.018226917833,0.004977906123,0.094616889954,-0.161435976624,9.877377510071
380,3.807728290558,-0.185323491693,0.003261012724,0.003777945880,0.932099044323,-1.569506883621,8.802214622498
381,3.818731784821,-0.102508552372,-0.043751366436,-0.004927679896,1.230061054230,-0.894641697407,7.791153430939
382,3.838022708893,0.017814986408,-0.059525817633,-0.016093779355,1.291579008102,0.036441467702,9.173240661621
383,3.844460964203,0.097467415035,-0.059724595398,-0.017320875078,2.397694110870,-0.020736265928,8.423489570618
384,3.851617574692,0.137903779745,-0.045405279845,0.001576692797,2.078451871872,1.672771334648,9.463801383972
385,3.861035823822,0.088968500495,-0.008193318732,0.022009413689,2.844414949417,1.857973456383,9.552276611328
386,3.868019104004,-0.001888029743,-0.031121194363,0.037701077759,3.921935558319,2.103824615479,7.972213268280
387,3.878290414810,-0.045356553048,-0.024471754208,0.039866290987,2.748719453812,0.920284330845,10.263532638550
388,3.891023635864,-0.084081739187,0.000178313174,0.038002960384,3.378022670746,0.736533582211,9.549485206604
389,3.897724390030,-0.077042520046,-0.041630353779,0.029768545181,4.075021743774,-0.526359796524,9.068163871765
390,3.908085823059,-0.073720216751,-0.038005463779,0.021269395947,3.636010169983,-0.340074807405,9.189304351807
391,3.921134710312,-0.059760916978,0.001480672974,0.018820589408,4.146375179291,-0.267110675573,9.044588088989
392,3.931451320648,-0.086538061500,0.006771009415,0.020111653954,4.554691791534,-0.173443719745,8.766923904419
393,3.944575786591,0.091785296798,-0.078660413623,0.024245074019,-0.490798354149,1.303837776184,18.935195922852
394,3.951910257339,0.539357900620,0.146036118269,-0.056737363338,-2.085098505020,5.798196792603,12.946062088013
395,3.957780599594,-0.044424034655,-0.164747238159,-0.013932952657,0.660674452782,-8.479866027832,6.248133182526
396,3.970092296600,-0.019237201661,-0.219447135925,0.015615438111,-5.630971908569,2.332390785217,10.210777282715
397,3.981361150742,-0.002869802061,0.269140183926,0.081449054182,-0.900701165199,-5.311022758484,7.306970596313
398,3.988097667694,0.064841523767,0.303454816341,0.072351515293,1.241457343102,2.796049356461,-1.156155347824
399,3.998543977737,0.205801099539,0.148907959461,-0.036090202630,-7.301692962646,-2.837514877319,22.074230194092
400,4.011079311371,0.235318452120,0.222645252943,-0.033436864614,-4.125278949738,-1.012945771217,14.012353897095
401,4.017765760422,0.179129406810,-0.012495935895,-0.040198605508,-2.599992513657,1.662989258766,9.754824638367
402,4.028476476669,0.036950137466,-0.071672528982,-0.048559404910,-4.440633296967,1.498425006866,15.665899276733
403,4.043876171112,-0.094975627959,-0.124648429453,-0.016533639282,-0.968080818653,1.971670150757,7.654091835022
404,4.048173666000,-0.212858662009,-0.140388548374,-0.035007406026,-1.133488178253,0.992986202240,8.926891326904
405,4.057822704315,-0.093390323222,0.114914134145,-0.004849870689,-1.101024985313,-1.406969428062,10.183498382568
406,4.071467638016,0.059740159661,0.100105963647,-0.002215018496,-0.145364895463,-1.213807225227,7.511759757996
407,4.077744007111,0.182821318507,0.097283430398,-0.015241866000,-3.117949485779,-1.028508186340,12.630611419678
408,4.090440988541,0.216484382749,0.126047343016,0.006724567618,-2.062947273254,-0.484048217535,11.059930801392
409,4.112499475479,0.129952803254,-0.068317070603,0.012544788420,-1.501356959343,2.536373138428,10.389206886292
410,4.112500905991,-0.005988772493,-0.208903193474,-0.005781653337,-2.548284292221,3.980449199677,12.022841453552
411,4.117939472198,-0.135964423418,-0.147907301784,0.017929466441,-0.911776900291,3.592123746872,8.936356544495
412,4.132254838943,-0.198521286249,-0.125041022897,0.039242528379,1.321242570877,3.005054235458,4.405102252960
413,4.144457817078,-0.149510189891,-0.077479228377,0.039819467813,-0.533992290497,-0.169839143753,8.840061187744
414,4.151201725006,-0.046647287905,0.047146882862,0.045441381633,0.730067253113,-2.034082651138,6.642497539520
415,4.161128759384,0.104183271527,0.028829503804,0.026342704892,0.239276081324,-2.736144304276,9.569353103638
416,4.168097019196,0.184170410037,0.009917256422,0.015486438759,-0.442993938923,-0.788820147514,10.680588722229
417,4.177785396576,0.180889651179,-0.008413203061,0.021572515368,1.065479993820,0.342558234930,9.290187835693
418,4.191333055496,0.104869239032,-0.023085452616,0.038191787899,0.927586734295,0.642997741699,9.269462585449
419,4.198309898376,-0.011707699858,-0.026869717985,0.037104479969,1.199816703796,1.739430665970,10.506994247437
420,4.216259241104,-0.107232756913,-0.073000587523,0.025328461081,2.075471878052,1.042911171913,8.096408843994
421,4.222448825836,-0.132797196507,-0.075599163771,0.001897530165,2.530888080597,-0.593433558941,9.488464355469
422,4.228075742722,-0.064337231219,-0.029947532341,-0.011221238412,3.289601325989,-1.611982107162,7.559206485748
423,4.238229036331,-0.003082018346,-0.054216146469,-0.020093109459,3.358609437943,-1.739165425301,8.628119468689
424,4.251249551773,0.054822351784,-0.060117136687,-0.033282872289,3.282670974731,-0.479846000671,8.946142196655
425,4.258461236954,0.064340978861,-0.017760656774,-0.022926367819,3.950275659561,0.544709026814,8.196656227112
426,4.267761230469,0.051962751895,-0.067799627781,-0.031459435821,3.481037616730,1.018973708153,9.967493057251
427,4.281157016754,0.022157944739,-0.046243585646,-0.021146368235,3.174585819244,0.620380163193,10.165723800659
428,4.288041114807,0.031925842166,-0.049332842231,-0.021689012647,4.295950412750,0.255842387676,8.521646499634
429,4.297838211060,0.096584327519,-0.006248752587,-0.012027607299,4.579239368439,0.150833576918,7.866335868835
430,4.311144351959,-0.038684990257,0.009266823530,0.044488020241,0.166951045394,-6.880257129669,19.545053482056
431,4.319100618362,-0.172463893890,0.072267770767,0.116220004857,-3.819161891937,-11.145248413086,9.739025115967
432,4.328248739243,-0.030628638342,-0.113673359156,-0.013959319331,-2.031535148621,2.410276651382,10.312346458435
433,4.341023921967,0.226269245148,-0.019177801907,-0.055290043354,-3.921644210815,-5.892480373383,4.409363746643
434,4.354374170303,0.050776656717,0.232369765639,-0.058190319687,-0.595654547215,8.277086257935,4.274424552917
435,4.361374855042,-0.140233740211,0.297597050667,-0.086458206177,-1.937323451042,2.437128543854,7.623106479645
436,4.374917507172,-0.269162625074,0.207575261593,-0.006148323417,-7.776634693146,2.766150236130,23.271621704102
437,4.377651214600,-0.308222562075,0.167301148176,0.036561321467,-4.503374576569,3.304209470749,15.375205039978
438,4.388202428818,-0.207460641861,-0.024642460048,0.047344211489,-3.301749229431,-0.992422997952,11.731613159180
439,4.401746511459,0.007320793346,-0.145364522934,0.061508767307,-4.034959793091,-2.681734085083,14.171436309814
440,4.408244609833,0.205693721771,-0.137001484632,0.042239431292,-0.967091083527,-1.414970993996,8.389776229858
441,4.417861938477,0.257658272982,-0.075355432928,0.019159443676,-0.297429680824,0.192761495709,7.175306797028
442,4.431487560272,0.127306610346,0.097947351635,0.007900780998,-1.618249058723,1.330203056335,11.152497291565
443,4.437687397003,-0.091139845550,0.149375751615,0.009728871286,-0.842482984066,3.098935365677,9.841921806335
444,4.454474925995,-0.215227991343,0.119953535497,0.014575337060,-2.424795150757,2.082657814026,11.110087394714
445,4.461164474487,-0.263585180044,0.081028044224,0.019470598549,-3.228752374649,0.092725850642,14.988713264465
446,4.468313455582,-0.120234631002,-0.056574475020,0.013315383345,-2.444915771484,-2.034665346146,11.918579101562
447,4.479197978973,0.011213967577,-0.199793025851,0.025733675808,-1.505748629570,-0.822813212872,10.087121963501
448,4.493979454041,0.208212316036,-0.191235542297,0.003583359299,-1.101275563240,-0.424504429102,8.862131118774
449,4.498221874237,0.214132174850,-0.103138975799,-0.029598407447,0.656846821308,-0.195745259523,5.053102970123
450,4.516187191010,0.118402771652,-0.032896757126,-0.031833872199,0.687045276165,-0.583330452442,6.318674087524
451,4.521228790283,-0.007758771069,0.044749986380,-0.015463633463,0.342390269041,-0.749815642834,8.186718940735
452,4.527733087540,-0.101187720895,0.053653884679,-0.000713122543,0.154795199633,-0.604726552963,9.652392387390
453,4.538031101227,-0.130736678839,0.007628262974,0.003848359687,0.522178173065,-1.346197485924,9.539505004883
454,4.555843353271,-0.108798049390,-0.017034534365,-0.006628093775,0.715176641941,-3.612008571625,9.477107048035
455,4.565987110138,-0.035209856927,-0.025380318984,-0.010804247111,1.395085811615,-0.922188282013,7.892936229706
456,4.571070194244,0.059296827763,-0.053380653262,-0.020542407408,1.778339505196,0.816142439842,7.678250312805
457,4.581123113632,0.084296613932,-0.047906290740,-0.008354427293,2.097595214844,1.104363441467,9.070115089417
458,4.587702035904,0.131214514375,-0.024628050625,0.011965179816,2.241334676743,1.216904163361,9.433827400208
459,4.597734451294,0.092841826379,-0.006026871502,0.028341550380,3.039196729660,0.602999985218,8.411971092224
460,4.611166477203,0.021306708455,-0.030294628814,0.044013217092,3.397586345673,1.044262051582,8.465465545654
461,4.618091106415,-0.044389639050,-0.013528341427,0.045486602932,2.583870649338,0.140254393220,10.495635986328
462,4.627736091614,-0.055349957198,-0.003423211398,0.037492997944,3.687070846558,-0.749061882496,8.798244476318
463,4.641135931015,-0.045084033161,-0.033314306289,0.034387461841,3.737808942795,-0.692103087902,8.937488555908
464,4.648652315140,-0.040463823825,-0.016086287796,0.025263760239,3.600197315216,0.047229409218,9.708055496216
465,4.664344072342,-0.067123629153,-0.000311937591,0.022664397955,4.099293231964,0.525194942951,8.853748321533
466,4.671284198761,-0.138287171721,0.007566766813,0.012999214232,4.611821651459,0.786699175835,8.137275695801
467,4.683026313782,-0.095675833523,0.128596141934,-0.048140682280,1.711782097816,2.700205564499,15.932961463928
468,4.692813158035,0.069539748132,0.044247601181,-0.081049822271,-3.370373010635,-4.001245498657,25.864662170410
469,4.701262712479,-0.114186927676,-0.062231395394,0.009199616499,-5.182169914246,-10.020363807678,11.513593673706
470,4.708009958267,0.050640877336,-0.156978994608,-0.000992077868,-2.549415588379,0.905256807804,6.698863983154
471,4.717943906784,-0.011819858104,0.176884338260,0.091561391950,1.331681609154,-1.876546621323,-0.047869838774
472,4.731542587280,0.041947033256,0.271996170282,0.041927177459,-0.922920405865,0.771808385849,1.587785840034
473,4.737760782242,0.160767987370,0.180311486125,-0.038799319416,-5.531468868256,-9.382206916809,18.300157546997
474,4.747887372971,0.255283594131,0.146492317319,-0.035271905363,-2.779966831207,-5.146871089935,10.907119750977
475,4.768262386322,0.221804350615,-0.003103963798,-0.053946185857,-2.596500635147,-1.233851075172,11.209027290344
476,4.774498224258,0.092300176620,-0.050535637885,-0.036838125437,-3.451048135757,2.520892381668,12.987699508667
477,4.780998706818,-0.121458843350,-0.168367311358,-0.021816000342,-0.976940333843,2.944135427475,7.197724819183
478,4.791023731232,-0.246483907104,-0.134236261249,-0.034142561257,-1.875378131866,1.087934732437,10.534144401550
479,4.798131942749,-0.120995044708,0.124076023698,0.006234420929,-1.350847125053,-1.875308156013,9.354403495789
480,4.808253288269,0.055726163089,0.088117890060,0.001680446323,-0.368787884712,-1.898898124695,8.455480575562
481,4.825448989868,0.184834152460,0.144022583961,-0.003323359415,-3.317048311234,-1.827906370163,12.890398025513
482,4.832697629929,0.237777233124,0.148340135813,-0.001731790602,-1.980793356895,-0.297597229481,9.996613502502
483,4.845334529877,0.168616577983,-0.051865559071,0.000194426160,-2.556472778320,1.879052162170,11.709342956543
484,4.851342201233,0.053298607469,-0.157443061471,-0.002248168923,-2.687413930893,2.237583160400,12.617893218994
485,4.857856512070,-0.116387188435,-0.178334206343,0.013526098803,-0.156841710210,1.737578630447,7.915324211121
486,4.873383045197,-0.221934214234,-0.125455141068,0.030887670815,0.733382046223,1.486905097961,6.566281795502
487,4.881154298782,-0.174655735493,-0.049081023782,0.042274225503,-0.269520223141,-2.345035791397,8.420877456665
488,4.887785196304,-0.054295759648,0.053559347987,0.046021230519,0.787906110287,-3.081313610077,6.394831180573
489,4.897713184357,0.100198574364,0.055787976831,0.024699300528,0.360413283110,-4.163408279419,9.930453300476
490,4.911057472229,0.174538135529,0.032870683819,0.029375638813,0.358535706997,-2.343664169312,8.369532585144
491,4.917670011520,0.137415647507,-0.023588167503,0.041955173016,0.652913749218,0.101190321147,8.680568695068
492,4.934945821762,0.016570705920,-0.030563637614,0.041441090405,0.339275419712,0.366732120514,9.793519020081
493,4.940457582474,-0.074609726667,-0.044869668782,0.034669004381,1.137069225311,-0.764283657074,9.765069961548
494,4.947800874710,-0.091290064156,-0.051491361111,0.022672645748,2.524412393570,-1.158363938332,7.930652618408
495,4.958182334900,-0.083038687706,-0.077065363526,-0.000190427992,2.412972211838,-0.149506703019,7.855476379395
496,4.977899312973,-0.052186828107,-0.011797271669,-0.004084620625,2.675739765167,-0.159071192145,8.537464141846
497,4.984563827515,-0.012499038130,-0.035533390939,-0.016310386360,3.243806362152,-0.040030129254,8.438567161560
498,4.991034507751,0.033802866936,-0.034971188754,-0.022719290107,2.626529455185,-0.080551974475,9.697770118713
499,5.001698732376,0.068454086781,-0.001563974074,-0.017411012203,3.366854667664,-0.163824707270,9.187569618225
500,5.007727384567,0.076797805727,-0.030180754140,-0.022273745388,3.902494668961,0.735976696014,8.938966751099
501,5.017725706100,0.050410218537,-0.030476292595,-0.023313917220,3.514273166656,0.615753650665,9.487322807312
502,5.031215667725,0.038036897779,-0.023998251185,-0.025108218193,4.166786193848,0.724948704243,9.047922134399
503,5.038123607635,0.068264812231,0.007125881501,-0.020775072277,4.633368015289,0.148013278842,7.790460109711
504,5.047751903534,-0.067514091730,0.007754142862,0.010990402661,-0.824620783329,1.207119822502,20.382112503052
505,5.061290264130,-0.491515815258,0.114451691508,0.099496252835,-1.835318088531,-5.171734333038,7.780584335327
506,5.076823234558,0.047067463398,-0.165796741843,-0.005548664369,-0.774506926537,9.547320365906,10.421233177185
507,5.081154823303,0.111417002976,-0.027350652963,-0.038465619087,-4.942508220673,-1.291257500648,7.668524742126
508,5.098789453506,0.060869604349,0.236828252673,-0.093189612031,1.316312193871,8.041057586670,2.685027599335
509,5.102229595184,-0.146495997906,0.264882117510,-0.097551062703,-2.408871173859,-0.227693334222,8.604394912720
510,5.108638048172,-0.206923037767,0.285881638527,-0.001737229526,-7.706082344055,2.293568372726,23.518932342529
511,5.121108531952,-0.272589087486,0.222086861730,0.030950844288,-3.103612422943,3.880503416061,11.864408493042
512,5.128526926041,-0.206099912524,-0.023770781234,0.047987665981,-3.586366415024,-1.121902108192,11.933546066284
513,5.141043424606,-0.024417718872,-0.120472356677,0.062010545284,-4.515468120575,-1.971492409706,15.245104789734
514,5.151616573334,0.145311057568,-0.100778393447,0.046204775572,-0.967809140682,-1.408324480057,7.828588008881
515,5.160722255707,0.234653130174,-0.083050183952,0.037368051708,-0.191884875298,-0.323674231768,6.644660949707
516,5.168175220490,0.126927703619,0.085529416800,0.033267948776,-1.199394702911,0.671353101730,10.554767608643
517,5.182139396667,-0.071413144469,0.142909407616,0.013706482016,-0.711849212646,3.047443628311,9.366394996643
518,5.188176393509,-0.202793151140,0.121790632606,0.015281856991,-2.229415416718,0.591931521893,11.893685340881
519,5.199010610580,-0.245492264628,0.082255199552,0.033523805439,-3.233851432800,2.160023212433,13.109986305237
520,5.216914415359,-0.139546617866,-0.056089546531,0.022973351181,-2.857394456863,-1.975010514259,11.345549583435
521,5.218631267548,-0.014191391878,-0.170077562332,0.010107862763,-1.493850350380,-1.797024250031,9.921977996826
522,5.227889060974,0.151643753052,-0.221116900444,-0.003698413260,-0.487045735121,-4.371958255768,8.944458007812
523,5.243587493896,0.220513343811,-0.120468288660,-0.029535505921,0.427301108837,-3.881411790848,6.973674774170
524,5.250237941742,0.170850187540,0.013623686507,-0.016282174736,0.743476033211,1.224195837975,5.110130310059
525,5.262053728104,-0.013047127053,0.057627685368,-0.019826512784,0.802818179131,4.668659210205,7.768999099731
526,5.271344661713,-0.132535547018,0.048425428569,-0.016692753881,-0.539541423321,3.090079784393,9.715118408203
527,5.292380094528,-0.175459086895,0.038777697831,-0.006466271821,0.447249710560,2.883232593536,8.091273307800
528,5.292383432388,-0.156753391027,-0.011558961123,-0.015743473545,0.736601591110,0.013334839605,8.831094741821
529,5.301079273224,-0.116606041789,-0.047311514616,-0.025494135916,0.645588934422,-0.329566836357,9.716709136963
530,5.308762550354,0.011784543283,-0.038735859096,-0.033739745617,1.845736026764,-1.289702057838,8.330032348633
531,5.318252086639,0.111211948097,-0.045342538506,-0.018673062325,2.163499116898,-1.376681923866,9.065896987915
532,5.333961248398,0.169515579939,-0.022426817566,0.001852257177,1.587863802910,1.850773453712,10.897638320923
533,5.339779376984,0.098283328116,-0.002913748147,0.027004422620,3.322902441025,1.634473562241,7.814234733582
534,5.348572969437,-0.006669695489,-0.023817442358,0.045962695032,3.595812797546,2.549415349960,8.152097702026
535,5.361141681671,-0.079393707216,-0.002723314567,0.045263841748,2.179917335510,1.134544730186,11.427869796753
536,5.367893934250,-0.095353968441,0.001484132838,0.043201729655,3.608692646027,-0.368757992983,8.762917518616
537,5.391738176346,-0.046217188239,-0.034904893488,0.036156035960,4.162043571472,-1.481252908707,8.459040641785
538,5.391746759415,-0.022215703502,-0.016787376255,0.026874121279,3.364004135132,-1.076534390450,9.925255775452
539,5.398082017899,-0.031262546778,-0.000913323369,0.027321107686,3.990002155304,-0.018292916939,9.368244171143
540,5.407770872116,-0.096961326897,0.012265393510,0.024341380224,4.613147258759,0.605194568634,7.493604183197
541,5.421325922012,-0.232739716768,-0.124183923006,0.011116936803,-0.810755372047,5.380057334900,15.169334411621
542,5.428484201431,0.154003947973,0.065390869975,-0.041781093925,-7.952067852020,16.982608795166,23.056077957153
543,5.437913179398,-0.042743504047,-0.112186498940,0.019704880193,0.867660284042,2.250067472458,5.704014301300
544,5.451316595078,-0.254593938589,-0.301722913980,0.044733550400,-4.305529594421,10.271281242371,3.599400043488
545,5.458222389221,-0.065679997206,0.264655411243,0.058855660260,-5.017542362213,-5.045342922211,15.248707771301
546,5.469812154770,-0.022245895118,0.415649265051,0.087093450129,0.866089403629,1.055921316147,0.500903129578
547,5.481312513351,0.164274916053,0.124367535114,-0.020998263732,-5.117864608765,-2.346084117889,18.001775741577
548,5.494677066803,0.188732743263,0.215609699488,-0.023996213451,-4.953797817230,-1.066744565964,16.904169082642
549,5.506282091141,0.173223823309,0.011578432284,-0.031863644719,-1.926854491234,0.021937733516,8.604533195496
550,5.513982772827,0.040978752077,-0.137280389667,-0.050100378692,-4.683964252472,2.100313425064,16.840845108032
551,5.520826101303,-0.076001346111,-0.105762064457,-0.030254965648,-1.262351393700,1.502358675003,8.390755653381
552,5.529238462448,-0.172611966729,-0.104619532824,-0.042737379670,0.196835905313,0.220008522272,5.772925376892
553,5.546119928360,-0.093621812761,0.101648740470,-0.019968388602,-2.000493526459,-1.801497578621,12.050820350647
554,5.547935247421,0.077472977340,0.132384568453,-0.017128558829,-0.130172759295,-2.127442121506,7.580528259277
555,5.557785511017,0.194303393364,0.085754960775,-0.021402437240,-2.314593076706,-0.401350945234,11.336953163147
556,5.571145772934,0.222754076123,0.118964917958,-0.014598499984,-3.681915283203,-0.914861559868,13.819935798645
557,5.577700853348,0.134695872664,-0.057326711714,0.004895457532,-1.356820940971,1.227586150169,10.777682304382
558,5.594329357147,-0.020965544507,-0.203102767467,0.006941081956,-1.002577781677,3.456439256668,9.184953689575
559,5.601538896561,-0.160642504692,-0.175893232226,0.022525258362,-0.736490905285,2.572717666626,8.268373489380
560,5.612018108368,-0.202414229512,-0.088381834328,0.024497671053,0.812609970570,0.030838832259,5.798650741577
561,5.618010282516,-0.123560838401,-0.048678353429,0.017544079572,0.813635051250,-1.708013653755,6.477757930756
562,5.631090402603,-0.019820719957,0.032644741237,0.024085514247,0.416806966066,-1.145224452019,7.434385776520
563,5.640113353729,0.110364675522,0.068449325860,0.028264164925,0.304894536734,0.114545457065,9.463475227356
564,5.649346828461,0.165767386556,-0.004824860021,0.023275466636,1.037160038948,2.616954565048,8.644525527954
565,5.661894083023,0.152744293213,-0.019106680527,0.034555628896,0.461105972528,3.012990713120,10.176130294800
566,5.667828559875,0.073960132897,0.004760541953,0.046491220593,0.728268027306,1.733124852180,9.730762481689
567,5.677752971649,-0.010468658991,-0.028851531446,0.047190599144,1.438077569008,1.019855260849,9.974247932434
568,5.701695919037,-0.077086366713,-0.046601749957,0.029818290845,2.046381473541,0.989822864532,9.673414230347
569,5.704991817474,-0.122854068875,-0.046473614872,0.002867421601,2.166502475739,0.111998267472,8.683759689331
570,5.711230278015,0.149476826191,-0.015878576785,0.009817443788,2.543771266937,-0.463191986084,5.061547756195
571,5.721130847931,0.525144875050,-0.038446851075,0.007504384033,-1.163518667221,3.100432634354,11.438753128052
572,5.727880954742,0.471215754747,0.008629732765,-0.012985296547,1.333153367043,2.461320400238,7.757641315460
573,5.737857580185,0.175466269255,-0.019624916837,-0.027864774689,1.541052103043,3.522088766098,5.460984706879
574,5.751112937927,-0.236168712378,-0.026308666915,-0.021283864975,-0.331883907318,4.982946395874,11.036720275879
575,5.758099794388,-0.411518603563,0.085975132883,-0.041119411588,-0.506831049919,1.158192157745,10.663511276245
576,5.768594503403,-0.382362365723,0.049096930772,-0.042328782380,2.114670753479,-0.568700432777,5.645262718201
577,5.781052589417,-0.389343589544,0.081467181444,-0.052665207535,-3.045249462128,4.231216430664,16.602869033813
578,5.787860631943,-0.370392858982,-0.174393758178,-0.043988343328,1.622469305992,0.006084563676,12.095525741577
579,5.804427146912,-0.624638617039,0.070827886462,0.031697291881,-2.664857625961,3.893391609192,12.436400413513
580,5.815559625626,-0.178874015808,-0.077025964856,-0.043957103044,-0.612311184406,14.247101783752,1.526197075844
581,5.818029403687,-0.071511834860,-0.027458839118,-0.029165668413,-5.136821269989,-1.706291079521,14.628757476807
582,5.828009605408,0.046580303460,0.060811489820,-0.047576561570,2.294480085373,5.867335796356,-0.720142126083
583,5.846647739410,-0.002306120703,0.081572555006,-0.037507530302,-2.253469228745,-1.644423007965,7.099353313446
584,5.847913503647,-0.035295382142,0.345997452736,0.062156096101,-6.131916999817,3.657707214355,19.936002731323
585,5.861183166504,-0.079705342650,0.133386358619,0.044870775193,-1.611023902893,0.173609957099,9.339723587036
586,5.871430158615,-0.049620237201,-0.156877085567,0.039201002568,-4.695991992950,-0.952213704586,15.247309684753
587,5.877791166306,0.006719633006,0.006072628312,0.075832538307,-4.083524227142,-0.748301029205,14.272026062012
588,5.887828588486,0.129268705845,-0.082575365901,0.051526688039,-0.049104757607,-0.437528610229,7.085106372833
589,5.907696485519,0.195810750127,-0.138728141785,0.053827282041,-2.045604228973,-0.284951895475,10.620635032654
590,5.914481401443,0.195544227958,0.086291931570,0.045104574412,-1.428357124329,1.270954847336,10.364761352539
591,5.921106576920,0.062836527824,0.124967202544,0.055126331747,-0.241177037358,2.077187061310,7.752217769623
592,5.931083917618,-0.028151238337,0.047016076744,0.051972068846,-3.929877996445,1.466622233391,15.328869819641
593,5.941507101059,-0.102950513363,0.047568611801,0.044686619192,-0.751224160194,0.598731935024,9.568589210510
594,5.947749853134,-0.079076938331,-0.067343972623,0.023191919550,-1.306757092476,-2.233615875244,8.867737770081
595,5.961416721344,-0.024162992835,-0.161265730858,0.012340351939,-2.394078254700,-0.972151935101,12.606635093689
596,5.967946767807,0.098606936634,-0.164719134569,-0.001178433187,-0.288324922323,-2.350435018539,7.546199321747
597,5.977692842484,0.138967171311,-0.124354273081,-0.015533041209,0.678208231926,-0.104767039418,5.628251552582
598,5.991271018982,0.116495549679,-0.035120971501,-0.023579800501,-0.517153561115,1.402902126312,8.606408119202
599,6.008883714676,0.023273920640,0.018623536453,-0.013407576829,-0.019265599549,1.777795672417,8.784373283386
600,6.012355566025,-0.043303597718,0.023566635326,-0.010140519589,0.452851504087,1.455493688583,7.726352691650
601,6.021071434021,-0.094856321812,0.004293778911,-0.008769059554,-0.070888251066,0.763947606087,9.853311538696
602,6.027838230133,-0.063953831792,-0.006632490084,-0.014129813761,-0.621327400208,0.059445247054,10.192433357239
603,6.039383411407,-0.068103358150,-0.010291474871,-0.022452235222,0.401905030012,0.427743554115,9.503576278687
604,6.052652835846,-0.003435304854,-0.029774121940,-0.028456024826,0.613581657410,-1.150877356529,8.918018341064
605,6.059039115906,0.038444444537,-0.054606683552,-0.024165799841,0.820426225662,0.384504109621,9.553128242493
606,6.074172735214,0.052118290216,-0.038496889174,-0.012096680701,0.716490209103,0.738715052605,10.062056541443
607,6.084786653519,0.039437759668,-0.025340346619,0.000437125098,2.256675004959,1.486528396606,8.442523002625
608,6.088183879852,-0.005741949193,-0.051839612424,0.008198444732,2.032947301865,1.108758926392,8.744657516479
609,6.099608898163,-0.067808166146,-0.009814706631,0.013935457915,1.761019825935,1.053572773933,9.570964813232
610,6.111188888550,-0.095360733569,-0.019412230700,0.018216885626,2.549901962280,-0.340605199337,8.794715881348
611,6.118758440018,-0.077751442790,-0.030418336391,0.012722657993,2.168773651123,-0.406561315060,9.615399360657
612,6.133476257324,-0.048452794552,0.000032122276,0.010564032011,2.355794429779,-0.579092800617,9.433905601501
613,6.140435695648,-0.052535232157,0.003449058626,0.014459323138,2.233618974686,0.777481377125,8.973087310791
614,6.148502826691,-0.110364690423,0.029365111142,0.021216498688,2.647987604141,0.934223830700,8.945695877075
615,6.157827138901,-0.043723393232,0.133088961244,-0.022276632488,1.235276460648,-1.847177028656,16.849702835083
616,6.175183773041,0.181186258793,0.119849458337,-0.009188869037,-2.349048614502,-3.201031923294,15.420781135559
617,6.177825927734,-0.029205242172,-0.102381668985,0.073527105153,-1.954365253448,2.210862874985,9.433293342590
618,6.187897205353,-0.001804509433,-0.221695035696,0.036594241858,-3.646085500717,5.364363193512,10.086592674255
619,6.201135158539,-0.097906216979,0.202786922455,0.104345783591,1.646443963051,-1.536668419838,1.435968875885
620,6.214669227600,0.057975251228,0.207976043224,0.041566707194,0.937274575233,0.387009620667,2.105820655823
621,6.221153020859,0.038574457169,0.211843788624,-0.024939853698,-5.299171924591,-8.544368743896,20.939767837524
622,6.231106996536,0.188685446978,0.112002201378,-0.058858409524,-1.443147540092,-3.737139940262,8.344488143921
623,6.238615274429,0.133453145623,-0.058999899775,-0.048754449934,-2.005217552185,0.610515117645,11.465071678162
624,6.249058723450,0.079731099308,-0.056488789618,-0.031236272305,-2.243201971054,2.941510438919,10.574147224426
625,6.261002302170,-0.061032820493,-0.160852968693,-0.023982198909,-0.159642919898,2.984991788864,7.248804092407
626,6.267801761627,-0.166506648064,-0.113731861115,-0.016932234168,-1.404558897018,0.947404146194,9.675499916077
627,6.278261423111,-0.073273137212,0.100903391838,0.005102000665,-0.524150192738,-1.050345659256,6.729253768921
628,6.295178413391,0.071397632360,0.069110848010,-0.011612292379,-0.505259811878,-4.291720390320,9.232437133789
629,6.298091888428,0.192474141717,0.061750967056,-0.006307801232,-2.381530046463,-0.727854847908,11.811185836792
630,6.319604158401,0.186677575111,0.092314705253,0.011161349714,-1.511748194695,1.343166232109,10.220493316650
631,6.321171522141,0.115885570645,-0.075934886932,0.005630712025,-0.961352765560,2.285699367523,9.691933631897
632,6.327866792679,0.003762733191,-0.191200956702,0.008958300576,-1.753215312958,0.845400154591,10.983133316040
633,6.337880849838,-0.075689524412,-0.145120471716,0.011505040340,-0.092547938228,0.598417282104,8.573390007019
634,6.351351022720,-0.123236171901,-0.087207302451,0.020125638694,0.929163992405,-0.538262307644,5.809553146362
635,6.358151435852,-0.079074628651,-0.040186062455,0.020832389593,-0.133694872260,-0.503889739513,9.226316452026
636,6.368055343628,0.005762893707,0.004708771594,0.014936795458,0.599922716618,-0.916849076748,7.982419490814
637,6.381083488464,0.099243074656,0.048589672893,0.012323027477,-0.133549049497,-1.501598477364,8.795448303223
638,6.387923479080,0.158493906260,0.017350547016,0.012315107509,0.591085374355,-1.134519815445,9.596690177917
639,6.398091554642,0.107422515750,0.013837272301,0.026324473321,0.104092180729,1.641049504280,10.234196662903
640,6.411166906357,0.009866507724,0.031145203859,0.028320278972,-0.255849897861,0.920753359795,10.573135375977
641,6.424429893494,-0.079379312694,-0.006301903166,0.029299624264,0.326628804207,-0.031163368374,10.257056236267
642,6.431117057800,-0.093894302845,-0.068783156574,0.016309794039,0.961683571339,-0.660167336464,10.212470054626
643,6.444455862045,-0.055530130863,-0.066950805485,0.002905580448,0.829786658287,-0.449070811272,9.238055229187
644,6.447743415833,0.023392364383,-0.036154437810,-0.003568199463,2.061893463135,-1.637338757515,8.049887657166
645,6.457697629929,0.089282162488,-0.070377014577,-0.014192041010,2.505845069885,-0.555141448975,8.314153671265
646,6.471271514893,0.107678718865,-0.030759777874,-0.009216401726,1.823632836342,0.981559693813,9.602618217468
647,6.477879524231,0.045757401735,0.000963321072,-0.005901355296,2.469329595566,1.224691629410,8.350841522217
648,6.487991571426,-0.002565790899,-0.040020268410,-0.006825588644,2.276668071747,0.778114676476,9.313609123230
649,6.501328706741,-0.034795012325,-0.027967642993,-0.010072475299,1.943411111832,0.514141142368,10.051696777344
650,6.507864952087,-0.038947466761,-0.013579461724,-0.010841488838,2.474074840546,1.458669424057,9.803881645203
651,6.524810791016,-0.065066516399,0.027383472770,-0.000199740753,2.336935997009,1.704674720764,8.921599388123
652,6.531267881393,-0.163367852569,-0.115567743778,0.030363991857,-1.332045674324,-5.498041629791,18.885093688965
653,6.537925958633,-0.269066303968,0.040583852679,0.098362863064,-2.472843885422,-6.391645908356,9.802408218384
654,6.548739671707,-0.011691203341,-0.101881869137,-0.027433870360,0.411823987961,-0.080243028700,7.052069664001
655,6.561077833176,0.298755109310,-0.063101656735,-0.031809423119,-3.712547063828,-5.354564189911,7.341237545013
656,6.567897796631,0.120420210063,0.229896992445,-0.055816769600,0.060650225729,5.580735683441,6.932656288147
657,6.577695369720,-0.057454295456,0.225941762328,-0.103004582226,0.141794890165,-0.912634074688,3.824487924576
658,6.591164827347,-0.226565435529,0.255610167980,-0.013057548553,-5.237170219421,4.186785697937,20.819839477539
659,6.598246812820,-0.244068399072,0.149136126041,-0.001044561155,-3.171480178833,3.189112901688,13.074898719788
660,6.607742786407,-0.205746978521,-0.088367201388,0.022939208895,-2.409540176392,-0.618940353394,11.722764015198
661,6.629605054855,-0.016536653042,-0.114415489137,-0.003687264863,-2.973062992096,-2.914133787155,13.309055328369
662,6.636590242386,0.194629713893,-0.102316088974,-0.029502758756,-0.707963287830,-3.502588272095,7.872172355652
663,6.641111850739,0.265111356974,-0.054139502347,-0.034519657493,0.069780856371,-0.138476744294,7.314408779144
664,6.658501625061,0.186640247703,0.109036453068,-0.058883480728,-0.675246000290,1.907583475113,8.889261245728
665,6.658591747284,-0.019414216280,0.176093369722,-0.062831833959,-0.181672304869,2.402217864990,7.808033943176
666,6.669257402420,-0.110622830689,0.104834675789,-0.071685336530,-2.623492002487,0.579053223133,13.156484603882
667,6.681377172470,-0.185449272394,0.070664547384,-0.053036361933,-1.923580765724,1.054455161095,11.499531745911
668,6.688305854797,-0.116914652288,-0.098702311516,-0.053990676999,-1.001641988754,-0.714288353920,10.075661659241
669,6.697883367538,0.015373463742,-0.183127924800,-0.047149144113,-1.609341979027,-0.669141590595,11.104735374451
670,6.711214780807,0.158703774214,-0.145751565695,-0.046268470585,-0.111112512648,-1.967288970947,8.261088371277
671,6.718140840530,0.216527014971,-0.116861797869,-0.052429113537,1.491695284843,-0.752795338631,5.130662441254
672,6.731118917465,0.163618594408,-0.046586424112,-0.059303388000,0.093334980309,1.137407898903,8.301365852356
673,6.741072177887,0.036764807999,0.036314807832,-0.062651552260,0.513503789902,2.309914827347,8.603329658508
674,6.748302936554,-0.076002225280,0.006947902497,-0.043081436306,0.468278676271,1.852853894234,9.403431892395
675,6.757930994034,-0.144419252872,0.006048600189,-0.023583538830,-0.230488792062,0.193854421377,11.170670509338
676,6.774682998657,-0.128009051085,0.027258668095,-0.033684022725,0.955383062363,-1.303488373756,8.747715950012
677,6.777755975723,-0.030420957133,-0.027777830139,-0.038153782487,0.603804886341,-1.389799356461,9.885908126831
678,6.788301944733,0.061942648143,-0.028770504519,-0.035428620875,-0.305085659027,-0.725228846073,11.675075531006
679,6.801210641861,0.115735620260,-0.031493827701,-0.029188683257,1.678411960602,0.086639888585,8.310500144958
680,6.807852029800,0.096479028463,-0.097301445901,-0.018466887996,1.735552549362,0.429250746965,8.988399505615
681,6.817718267441,0.057713288814,-0.029052793980,-0.001625348348,1.371531963348,1.448698997498,10.821606636047
682,6.837850093842,-0.013245117851,-0.021852660924,0.010286111385,2.978463649750,0.814729988575,7.676844120026
683,6.847315311432,-0.082724176347,-0.040976375341,0.015277039260,2.286865472794,1.002343535423,9.570153236389
684,6.851942777634,-0.091209240258,-0.002464381745,0.018646126613,1.876884818077,0.042432583869,9.935045242310
685,6.861102581024,-0.083607330918,-0.008358664811,0.021913770586,2.584555625916,0.218392774463,8.138457298279
686,6.867765188217,-0.059081111103,-0.022352611646,0.026250507683,2.324096679688,-0.504292428493,9.257795333862
687,6.878671407700,-0.035792961717,-0.021154852584,0.018652368337,2.572323322296,-0.884605705738,9.900164604187
688,6.893267631531,-0.028447899967,0.005693497602,0.013129328378,3.860269308090,-2.165489196777,8.707776069641
689,6.897716760635,0.203485354781,0.053515840322,-0.046318717301,2.508375406265,2.638233423233,18.612182617188
690,6.907904148102,0.108700513840,0.035489618778,-0.006138810422,-4.674910068512,7.461216449738,15.183817863464
691,6.921292543411,-0.121336311102,-0.072207912803,0.072464302182,-0.452106773853,-1.700482130051,9.580796241760
692,6.928141593933,-0.099157631397,-0.188072353601,0.045923255384,-4.150189399719,8.092423439026,9.106457710266
693,6.941482782364,-0.141230881214,0.291826814413,0.128382623196,-1.684221863747,-2.155832290649,10.570753097534
694,6.958303928375,0.100547827780,0.278814077377,0.046678572893,1.226704597473,0.970374226570,-0.050861105323
695,6.958305835724,0.121775165200,0.205178320408,-0.037535127252,-4.590475559235,-6.326308727264,19.776477813721
696,6.967791080475,0.208724260330,0.228289082646,-0.075696974993,-1.691005110741,-3.792253732681,8.827489852905
697,6.981699228287,0.160561054945,-0.004520198796,-0.076330356300,-0.688635170460,-0.751327693462,8.966370582581
698,6.988422393799,0.051207676530,-0.051992893219,-0.046683736145,-3.663232564926,2.548020362854,13.912825584412
699,6.997720479965,-0.106773056090,-0.070956721902,-0.039821688086,-0.472715795040,2.727112293243,7.262444972992
700,7.011439085007,-0.224081471562,-0.061856497079,-0.028660951182,-0.054753351957,0.341705769300,7.244956970215
701,7.018260717392,-0.146228656173,0.114879570901,-0.010797357187,-0.508885622025,-1.421586751938,8.257874488831
702,7.027731657028,0.004021042027,0.137299641967,-0.008633712307,-0.063742376864,-4.316962718964,7.967914104462
703,7.042281627655,0.156590878963,0.095717072487,-0.015402043238,-1.991330027580,-1.779026865959,11.197875022888
704,7.051331520081,0.164392739534,0.067584946752,-0.003698854242,-2.868640899658,-1.372745275497,14.113042831421
705,7.057765245438,0.116206891835,-0.077691085637,-0.000459054485,-1.197324633598,1.482407927513,9.774947166443
706,7.071111202240,-0.030776867643,-0.190073221922,0.003669123631,-0.598162591457,2.110186100006,10.048865318298
707,7.078901052475,-0.143150031567,-0.158640444279,0.004791958258,-0.538810491562,1.696699380875,8.306243896484
708,7.087790966034,-0.183873251081,-0.094904392958,0.016649806872,0.975262999535,0.051081597805,6.728739738464
709,7.102149724960,-0.121472269297,-0.070144310594,0.016143521294,0.264836937189,-0.897258102894,7.676724433899
710,7.113671779633,-0.053508356214,0.044985163957,0.031863946468,0.370313614607,-1.283751010895,8.126239776611
711,7.118244647980,0.043902933598,0.028727831319,0.024277001619,0.245982304215,-0.599676668644,9.520889282227
712,7.132788658142,0.056218657643,-0.001962660113,0.028423488140,-0.181690111756,-0.031764026731,10.787536621094
713,7.144752025604,0.064260013402,-0.000155554444,0.030309690163,0.346090257168,0.645627140999,9.403952598572
714,7.151126861572,0.000171056134,0.009366638958,0.030714182183,0.692587733269,0.793145000935,9.536890983582
715,7.161032676697,-0.067584402859,-0.005407537799,0.022063331679,0.347011327744,0.257140427828,10.463713645935
716,7.167752265930,-0.102645218372,-0.031562127173,0.021441543475,0.691735565662,0.230245202780,10.100816726685
717,7.178110361099,-0.051899090409,-0.053592018783,0.013263590634,1.120630741119,-0.399131894112,10.150146484375
718,7.191005706787,-0.016049027443,-0.048156172037,0.010528041050,1.657362222672,-0.230728596449,8.838693618774
719,7.198087215424,0.075638927519,-0.084126599133,-0.006842838135,2.437223434448,0.487462013960,9.102300643921
720,7.207907915115,0.092861399055,-0.034100268036,-0.004351615440,2.378170728683,0.567384183407,8.270577430725
721,7.221065282822,0.060569211841,-0.013698427938,-0.007482924964,2.971537828445,1.454547643661,8.240747451782
722,7.227925539017,-0.004324334208,-0.003281715792,-0.006333484780,2.214189052582,0.944403529167,9.891125679016
723,7.238025665283,-0.029503330588,0.025171512738,-0.003454809543,2.162635803223,1.188083291054,9.617040634155
724,7.251028776169,0.006669094320,0.019478404894,0.000693084672,2.338402748108,-1.676147580147,8.160046577454
725,7.257639646530,0.059728633612,0.030744338408,0.023458661512,1.945796489716,-2.630929708481,10.092917442322
726,7.273062229156,-0.087956920266,0.014856270514,0.091111920774,-2.877811193466,-4.802411556244,19.814033508301
727,7.281222581863,0.076155506074,-0.143150284886,0.067700855434,-5.451749801636,-6.879598617554,16.397827148438
728,7.288244724274,0.101477637887,-0.160108834505,0.010882846080,-1.570031762123,1.441481709480,10.612059593201
729,7.298031091690,0.182390540838,-0.054478324950,0.015833530575,-2.600829601288,-5.564891815186,6.095503807068
730,7.311120748520,0.086244896054,0.294051587582,-0.005142154172,-0.655728220940,7.579074382782,7.899733066559
731,7.317667722702,-0.035969018936,0.257590085268,-0.017902076244,-0.150135204196,0.775124669075,3.277299404144
732,7.327738761902,-0.158012628555,0.129124522209,0.057781446725,-6.263964176178,4.444167137146,22.285654067993
733,7.341122627258,-0.135630249977,0.162893891335,0.088958896697,-2.350735902786,0.458497673273,12.291851997375
734,7.354703664780,-0.107678428292,-0.087182626128,0.114332467318,-1.318368434906,-1.228334546089,10.318004608154
735,7.361105442047,0.070221498609,-0.149005413055,0.082038283348,-2.961088418961,-1.438666939735,12.893745422363
736,7.371276378632,0.187344685197,-0.085559330881,0.063711777329,-0.496970057487,-1.180251598358,6.901578426361
737,7.377788782120,0.170726224780,-0.018690379336,0.032665494829,0.780167341232,1.196899294853,5.240960597992
738,7.393072128296,0.068901799619,0.071304671466,0.018937125802,-1.668980002403,1.453847289085,10.083231925964
739,7.401221990585,-0.071192845702,0.148770526052,0.021433191374,-1.261564850807,1.508592963219,10.587596893311
740,7.409631013870,-0.092913582921,0.096380680799,0.021122787148,-1.491167902946,0.676362752914,10.620982170105
741,7.417988777161,-0.123882040381,-0.025818072259,0.022892693058,-2.409296751022,-1.748427629471,13.367232322693
742,7.431122064590,-0.013602353632,-0.101027078927,0.018387727439,-1.188380360603,-1.436914443970,10.394014358521
743,7.438360452652,0.085163153708,-0.130549579859,0.015483152121,-0.391034036875,-2.151167631149,8.916897773743
744,7.454564094543,0.163378104568,-0.083349511027,-0.002917972393,0.794714272022,-0.395457267761,7.212392330170
745,7.463747739792,0.173971086740,-0.021460782737,-0.008027436212,0.083290606737,0.109202131629,7.465969085693
746,7.468083858490,0.044783424586,0.054166547954,-0.012647792697,0.591448903084,1.234660029411,8.070441246033
747,7.477808713913,-0.027296738699,0.048413824290,-0.009287539870,0.132482513785,0.371215879917,9.330201148987
748,7.491219282150,-0.072906479239,0.023056460544,-0.007115205750,-0.403226971626,-0.004361113068,10.980648994446
749,7.497868776321,-0.062820643187,0.000549208489,-0.006199975498,0.142999410629,-1.489630579948,9.511331558228
750,7.507715225220,0.004814106505,-0.021367697045,-0.011128325015,0.406874835491,-1.874505043030,9.308269500732
751,7.521155834198,0.071565054357,0.002785095945,-0.009678626433,0.464028060436,-1.686188101768,9.478284835815
752,7.527781724930,0.108818158507,-0.007108433638,-0.003482471686,0.820930302143,-0.540567874908,9.595286369324
753,7.537930727005,0.120726235211,-0.027173738927,0.001221950166,0.731234908104,0.016745613888,10.208415031433
754,7.552270412445,0.060146357864,-0.027402397245,0.003260345198,1.440410017967,0.726755499840,9.395361900330
755,7.568817853928,-0.014043719508,-0.032777592540,0.014659227803,2.018009424210,0.741981923580,9.376127243042
756,7.571242809296,-0.066391654313,-0.040824741125,0.026125125587,1.836168885231,0.238377690315,9.968836784363
757,7.581962108612,-0.067958272994,-0.039787795395,0.029831660911,2.387165784836,-0.609190285206,9.199007034302
758,7.589511871338,-0.041645519435,-0.037376061082,0.024650946259,2.349330425262,-0.800503969193,9.590201377869
759,7.597816705704,-0.012091258541,-0.034277297556,0.017748666927,2.122345447540,-0.408368796110,9.727073669434
760,7.612091302872,0.021870153025,-0.026061404496,0.003042852739,2.649594545364,-1.440251588821,8.206365585327
761,7.618142366409,-0.004472953267,-0.013417514041,-0.010008601472,1.931694865227,0.624313056469,9.637768745422
762,7.627717733383,-0.000528807635,-0.020291678607,-0.022889433429,1.655051350594,1.027664422989,11.103786468506
763,7.641050815582,-0.009520453401,0.213153675199,-0.134585812688,2.660331249237,-5.250452995300,16.502063751221
764,7.648110866547,-0.032564431429,-0.212243050337,-0.086763001978,-0.446758329868,12.980472564697,7.877786159515
765,7.664432764053,0.113779880106,-0.225499361753,-0.070388078690,-6.881011486053,2.621940612793,19.900754928589
766,7.671027898788,-0.068516083062,-0.152006790042,-0.082047857344,-4.129996299744,6.868381977081,6.200738906860
767,7.677958965302,-0.048786744475,0.119613125920,-0.025553643703,-2.494178056717,-3.058466672897,12.618877410889
768,7.688907384872,0.008949904703,0.279776692390,-0.015402095392,-2.756479740143,2.776294469833,8.612552642822
769,7.702401638031,0.092461496592,0.110924519598,-0.078885160387,-2.205566644669,-2.513067007065,12.868206024170
770,7.711394548416,0.162441581488,0.032399017364,-0.068522326648,-3.446941852570,0.018740303814,12.988504409790
771,7.717879772186,0.181657016277,-0.025672515854,-0.053039532155,-1.275941371918,0.437438666821,10.153227806091
772,7.731230258942,0.130158469081,-0.095790922642,-0.009851684794,-0.738934874535,2.550133466721,8.584783554077
773,7.738590717316,-0.102056033909,-0.037766069174,-0.001274663024,-1.095388054848,4.603209972382,7.798014163971
774,7.748243570328,-0.425921469927,0.040550198406,-0.037073273212,-0.526599228382,2.904749155045,7.846285343170
775,7.767804861069,-0.558609306812,0.041795242578,-0.079687982798,-3.236211776733,-2.640171766281,12.818026542664
776,7.775644302368,-0.221866056323,0.037738431245,-0.072484858334,-1.837304949760,-4.466558456421,9.343523979187
777,7.784586906433,0.222125560045,0.063103012741,-0.002991183195,-0.318613082170,-2.369097471237,9.417145729065
778,7.791097879410,0.644192516804,-0.006333670579,0.077862150967,0.811501085758,-2.879195213318,7.898920536041
779,7.797706127167,0.687649428844,-0.168522924185,0.101009666920,-0.968551218510,2.511978387833,11.227705955505
780,7.807855367661,0.394597023726,-0.178260400891,0.069136269391,-1.594095349312,0.593790113926,9.154417991638
781,7.822533130646,-0.080442018807,-0.166286543012,0.023451142013,-1.789247274399,0.963426232338,8.900593757629
782,7.832463026047,-0.375475496054,-0.145283088088,-0.012241210788,0.920974075794,3.031256437302,10.078953742981
783,7.837882280350,-0.441602379084,-0.190074101090,-0.012307876721,0.482222199440,-0.024058125913,7.596338748932
784,7.854415893555,-0.122089467943,-0.100290440023,0.055537968874,1.583276867867,-2.569083690643,8.877373695374
785,7.857898950577,0.243611872196,-0.029448127374,0.100718520582,3.223663806915,-2.290354728699,5.729891777039
786,7.871870756149,0.363162100315,-0.061745271087,0.081659205258,0.481200605631,0.372373610735,11.130778312683
787,7.881145954132,0.103121086955,-0.019114816561,0.026389630511,0.708586275578,2.831940889359,9.513017654419
788,7.888071775436,-0.302554607391,-0.061978567392,-0.048670683056,1.135850071907,2.717013597488,10.697475433350
789,7.897738933563,-0.503823816776,-0.139604195952,-0.102117896080,0.049500565976,-0.028076769784,12.824808120728
790,7.911348581314,-0.479552090168,-0.157736435533,-0.116908162832,0.693767309189,-1.647293925285,10.615905761719
791,7.917801856995,-0.288307249546,-0.151796996593,-0.087863408029,1.586871981621,-0.773299396038,7.999756813049
792,7.927871227264,0.001938412199,-0.127501279116,-0.049229010940,1.613705754280,-1.589584112167,9.309733390808
793,7.941288232803,0.240696519613,-0.112835228443,-0.010171011090,1.920940518379,-0.184871688485,9.005667686462
794,7.948306798935,0.311350762844,-0.156843677163,0.010171008296,1.708409428596,1.089090228081,10.519220352173
795,7.957721471786,0.218295931816,-0.166998758912,0.021380005404,1.312560081482,1.256016254425,11.115244865417
796,7.978121519089,0.084561578929,-0.157686099410,-0.002248126548,1.206287503242,1.995654225349,10.391603469849
797,7.984400987625,-0.051792275161,-0.185707867146,-0.015531748533,2.292914628983,0.865413904190,8.365085601807
798,7.994174242020,-0.141303151846,-0.173636838794,0.001426399685,1.074184417725,0.303497254848,11.555871009827
799,8.001257181168,-0.089797861874,-0.156055927277,0.034099090844,2.262347936630,-0.577085554600,10.804491043091
800,8.007775068283,0.251668661833,-0.236332699656,0.067014753819,2.905836343765,-7.461426734924,4.818874835968
801,8.018151998520,0.168759882450,-0.005419102963,0.101126097143,-7.403346061707,1.914041757584,30.474639892578
802,8.031183004379,0.024586169049,-0.383569449186,-0.007246811874,-1.267705559731,-1.819469332695,4.172467708588
803,8.038203477859,-0.207045346498,-0.606957435608,0.023662088439,-2.038373470306,4.065143585205,11.922466278076
804,8.048119783401,-0.078570239246,-0.267231583595,0.020350180566,-0.677055358887,-6.755156040192,4.211026668549
805,8.063273906708,-0.056890305132,0.084568902850,0.002184768673,-0.446141362190,0.395044744015,6.540822505951
806,8.076900720596,0.043205540627,0.038597695529,-0.016379700974,-0.178819909692,-0.067083045840,6.515013217926
807,8.083532810211,0.011615311727,-0.173603713512,0.015305768698,-3.707226753235,2.090896129608,14.810893058777
808,8.091129064560,-0.009317137301,-0.075035139918,0.043494388461,-3.755570650101,0.175121307373,14.161295890808
809,8.098187446594,0.071743041277,-0.209480032325,0.045282695442,-0.578706562519,-1.211306810379,8.935861587524
810,8.107797861099,0.151981994510,-0.392509073019,0.019859435037,-2.536555290222,-0.071125768125,12.416095733643
811,8.121524572372,0.151152014732,-0.246859699488,0.001756892074,-1.123417377472,1.569932699203,8.262279510498
812,8.127793312073,0.011570684612,-0.190931469202,-0.028493847698,2.122788429260,1.746463894844,3.544680356979
813,8.137991905212,-0.101848684251,-0.171779185534,-0.042960867286,-2.248458147049,1.631836891174,14.306871414185
814,8.151517152786,-0.190106928349,-0.120541527867,-0.029701974243,-0.364188075066,-0.044757984579,10.605641365051
815,8.158093452454,-0.161697596312,-0.222495272756,-0.007546497509,-1.011391639709,0.299500912428,11.891317367554
816,8.167889833450,0.021280162036,-0.350782424212,0.004848338198,-2.387501001358,-1.386041760445,15.115616798401
817,8.181571483612,0.206309914589,-0.471475601196,0.010696547106,-0.940355062485,-2.081009864807,11.528637886047
818,8.187855958939,0.358286976814,-0.503053784370,0.008081359789,-0.331256628036,-1.527352809906,10.369506835938
819,8.202497720718,0.354826807976,-0.419376045465,-0.000396612566,0.841353714466,-0.062367998064,8.851666450500
820,8.211160182953,0.191834941506,-0.378947943449,-0.026080865413,1.116459608078,2.311845064163,8.248569488525
821,8.223404169083,-0.020684428513,-0.312763512135,-0.029715143144,0.780632853508,2.959913015366,9.514779090881
822,8.228786706924,-0.149043515325,-0.311677783728,-0.029923271388,-0.071397915483,1.758120775223,12.125459671021
823,8.241451263428,-0.163579329848,-0.373582065105,-0.007722915150,0.099325187504,0.479195028543,12.420203208923
824,8.248090982437,-0.038059372455,-0.447867035866,-0.003984431736,0.779427886009,-2.202485561371,11.083492279053
825,8.263095617294,0.167103827000,-0.505798220634,0.012982264161,0.125801905990,-3.310302495956,12.226015090942
826,8.271113634109,0.304951995611,-0.511541724205,0.023666229099,-0.119167819619,-1.067596077919,12.348207473755
827,8.282151222229,0.246105611324,-0.514249444008,0.032187547535,0.805725634098,1.530165195465,9.427547454834
828,8.288311719894,0.003997095861,-0.506421446800,0.025741700083,1.787531137466,3.660923957825,8.734983444214
829,8.301143646240,-0.279025167227,-0.468110591173,0.014071699232,1.121776819229,3.064966440201,9.938506126404
830,8.307700634003,-0.454108208418,-0.441925436258,0.009332435206,2.006660699844,1.740622162819,9.468357086182
831,8.318282604218,-0.407180279493,-0.488317757845,0.013994669542,1.987741947174,-1.017793774605,10.170167922974
832,8.331106185913,-0.244438245893,-0.506769955158,0.018194381148,1.784795761108,-2.596804618835,11.835079193115
833,8.344523906708,-0.036161467433,-0.560221493244,0.034359630197,2.553086519241,-3.380232572556,10.752199172974
834,8.350291252136,0.101466156542,-0.610870480537,0.056930121034,2.735760688782,-1.640909671783,10.377519607544
835,8.362832307816,0.172219365835,-0.602495908737,0.072490759194,3.280697584152,-0.781545639038,8.985582351685
836,8.373216390610,0.107980161905,-0.563843488693,0.073541201651,4.095458984375,2.109073877335,8.379136085510
837,8.384410142899,0.026528529823,-0.576186716557,0.076626919210,4.060954570770,0.623865187168,9.204713821411
838,8.393033504486,-0.071003265679,-0.582148790359,0.065289698541,3.836587905884,1.073421955109,10.092330932617
839,8.397738933563,-0.081985175610,-0.581310808659,0.059751246125,4.410797119141,-0.225858673453,8.365090370178
840,8.408580541611,-0.073119431734,-0.592304289341,0.052990630269,4.257737636566,0.022605108097,10.865914344788
841,8.421751022339,-0.006051891018,-0.626961648464,0.053314648569,4.084836483002,0.873772561550,9.468275070190
842,8.427708864212,0.100102595985,-0.609288454056,0.032610785216,4.596201419830,-7.705163002014,14.884877204895
843,8.437904119492,0.622703373432,-0.528688371181,0.017944041640,3.956593036652,0.236981049180,11.276747703552
844,8.451206445694,-0.011877950281,-0.741946518421,0.050886496902,-1.570289611816,6.797673225403,13.122906684875
845,8.457764148712,0.121133171022,-0.770550131798,0.054897889495,1.141521811485,5.549793243408,5.123750686646
846,8.468551874161,-0.018788635731,-0.593072414398,0.096272967756,2.782581329346,-2.457010030746,0.945258080959
847,8.481220245361,-0.063765279949,-0.372844308615,0.043238647282,2.799788475037,3.353213310242,4.837895393372
848,8.499672889709,0.093512676656,-0.365933984518,-0.057986009866,0.523710250854,-3.520931959152,12.585579872131
849,8.501082897186,-0.136810079217,-0.455308437347,-0.063884042203,-4.022209644318,-14.415020942688,18.375141143799
850,8.513826847076,-0.028619626537,-0.570887863636,-0.130463317037,-3.352493524551,-7.069581985474,14.661098480225
851,8.523005485535,0.068632468581,-0.656970918179,-0.090758256614,2.000254869461,-2.671122074127,6.195404052734
852,8.527787446976,0.141869723797,-0.793372452259,-0.094308055937,-0.236998409033,-1.230671286583,13.051136016846
853,8.544190406799,0.138603985310,-0.631571590900,-0.064475968480,0.221428140998,1.632508277893,13.323369979858
854,8.547944307327,0.259637862444,-0.689801931381,-0.058509401977,0.984219789505,-2.439052581787,11.245937347412
855,8.557766199112,0.195011377335,-0.686392009258,-0.059109926224,0.074603043497,3.403355360031,13.100663185120
856,8.571175336838,0.149359747767,-0.636072516441,-0.070346459746,1.759572267532,2.086168289185,10.429822921753
857,8.577726602554,0.021779717878,-0.754424571991,-0.064854189754,2.606986284256,-0.392699688673,8.403936386108
858,8.594579935074,-0.027978947386,-0.762064635754,-0.025792736560,-1.584280252457,-0.206526219845,16.334922790527
859,8.601066827774,-0.119421698153,-0.816393375397,-0.008517011069,1.642750501633,-3.105463981628,8.513853073120
860,8.607820034027,-0.000810547615,-0.820630311966,0.029633512720,0.756400048733,-1.539734363556,10.046312332153
861,8.618218898773,-0.094844602048,-0.908121645451,0.042238935828,-2.496170759201,-4.575550079346,18.393815994263
862,8.631046295166,-0.104177042842,-1.010136723518,0.061914816499,1.954922080040,2.127663850784,10.719036102295
863,8.637982368469,-0.280407488346,-1.202319025993,0.067208386958,4.787208080292,0.035687088966,2.476266622543
864,8.648861169815,-0.229119837284,-0.915039241314,0.103915184736,4.947786808014,-0.642626941204,1.858232140541
865,8.663960456848,-0.108412206173,-0.799344658852,0.117842048407,1.242470145226,-3.337506294250,11.224815368652
866,8.675095319748,0.175224974751,-0.858444631100,0.063741043210,2.724200010300,-3.933650255203,13.106636047363
867,8.678586721420,0.057350870222,-0.995160400867,0.059158433229,5.455532550812,0.654828608036,9.637222290039
868,8.699055910110,-0.223564967513,-1.001930713654,-0.026097770780,4.341791629791,2.231253623962,9.299864768982
869,8.704704999924,-0.454373270273,-0.955317139626,-0.059874892235,3.261374473572,0.051484677941,9.302314758301
870,8.711279630661,-0.313076853752,-0.852746903896,-0.092594526708,5.213614940643,-3.987279891968,3.211569070816
871,8.721296548843,0.062453895807,-0.593353569508,-0.082834638655,5.228942394257,-4.954453945160,2.192897081375
872,8.727799177170,0.446991443634,-0.462779402733,-0.094257779419,3.707177400589,-1.768488526344,8.844265937805
873,8.737759113312,0.672619819641,-0.574898064137,-0.124040886760,4.600866317749,-1.390498161316,6.690666675568
874,8.752379655838,0.602509677410,-0.679204463959,-0.106919728220,4.149435520172,2.395952463150,9.810339927673
875,8.757913112640,0.422858148813,-0.644533097744,-0.102785877883,4.188816547394,3.032209157944,9.029586791992
876,8.768206596375,0.211676612496,-0.707403004169,-0.074414178729,5.229194164276,3.186760902405,9.207735061646
877,8.781137228012,0.026622625068,-0.741338670254,-0.062206856906,5.965413570404,2.968339920044,6.764760017395
878,8.787714242935,-0.049613539129,-0.676679611206,-0.040715444833,6.983911991119,2.048012733459,5.167268753052
879,8.804051637650,-0.034664314240,-0.614934206009,-0.029199678451,5.577757835388,0.841482996941,8.121855735779
880,8.812899589539,0.055025145411,-0.586071968079,-0.005694772583,6.862004280090,-0.324059247971,6.726119041443
881,8.819179058075,0.128610059619,-0.570242464542,0.025340659544,7.828715801239,0.959666132927,3.970105409622
882,8.829486846924,0.138844728470,-0.536143124104,0.045491002500,5.408203125000,1.718664169312,9.477405548096
883,8.841181278229,0.026591314003,-0.557348072529,0.011561011896,6.894553184509,7.170209407806,12.938007354736
884,8.847898006439,-0.159744337201,-0.835959970951,0.045108370483,5.262639999390,8.249849319458,14.096590995789
885,8.857673406601,-0.167621389031,-0.702274501324,0.035106450319,10.288496017456,-6.475826740265,-0.649170935154
886,8.871121168137,0.030518449843,-0.447732627392,-0.033959310502,-6.641024112701,-6.916408538818,25.324434280396
887,8.878954648972,0.024567965418,-0.411395221949,0.014049881138,4.725456714630,-5.907607555389,5.056291103363
888,8.887665033340,-0.006042440888,-0.883290529251,-0.070107601583,6.146636009216,-1.724431395531,1.222940325737
889,8.908936738968,-0.046676103026,-0.496428251266,0.042965680361,0.011885776184,1.774945974350,13.970624923706
890,8.914441347122,-0.094043530524,-0.031096663326,0.057579670101,5.547920703888,-1.807224631310,5.693002223969
891,8.921024322510,-0.095776341856,-0.427485197783,0.079800717533,2.179852724075,5.856084346771,12.918385505676
892,8.931161642075,-0.159059733152,-0.444906651974,0.067171394825,0.624568223953,0.183849886060,15.749017715454
893,8.938731193542,-0.120283387601,-0.506889939308,0.044492695481,5.030844211578,1.683782935143,4.258158206940
894,8.948693275452,-0.077698722482,-0.735220551491,0.037326879799,1.819948673248,-3.305024623871,11.477047920227
895,8.961211442947,0.078162938356,-0.708791613579,-0.000890464988,2.481208801270,-1.737869739532,9.984731674194
896,8.969289779663,0.086393266916,-0.606807112694,0.039536919445,6.789381980896,1.865057110786,3.415993213654
897,8.985609292984,0.039040628821,-0.514374673367,0.018485851586,5.489700317383,1.946531057358,6.397531986237
898,8.991253852844,-0.080766767263,-0.534680247307,0.032833185047,4.065714359283,2.181528091431,11.031568527222
899,9.004727363586,-0.139316529036,-0.477301448584,0.039570759982,4.244415760040,0.462295413017,8.573585510254
900,9.011695623398,-0.141968607903,-0.442447960377,0.013341467828,5.317925930023,-0.810265600681,7.285775184631
901,9.022200584412,-0.024441484362,-0.584110736847,0.012602448463,4.085314273834,-2.776236534119,10.788036346436
902,9.028435945511,0.070951119065,-0.605588316917,-0.008778292686,4.176877498627,-2.033460378647,11.490771293640
903,9.037859678268,0.111538171768,-0.537032783031,-0.004381715786,6.299961566925,-1.374862909317,6.343978881836
904,9.054561853409,0.088546238840,-0.496178090572,-0.011499926448,6.123343467712,-0.210638880730,8.150424003601
905,9.057817935944,0.023237215355,-0.459034353495,-0.003633128945,5.978666305542,0.571055769920,8.700244903564
906,9.068614482880,-0.077777341008,-0.416548728943,-0.000362830702,7.382736206055,0.718770623207,5.894145488739
907,9.081206560135,-0.117138184607,-0.365528851748,-0.002999717835,6.030175685883,0.002871238627,9.269889831543
908,9.087813615799,-0.108236491680,-0.409694731236,-0.000660974998,6.040593624115,-1.437760114670,10.582375526428
909,9.098276138306,-0.041737075895,-0.427625596523,-0.013995813206,6.316624641418,-2.201311111450,9.288429260254
910,9.114591360092,0.095121115446,-0.370892405510,-0.012230409309,7.204010009766,-1.473480343819,8.630500793457
911,9.118569850922,0.199145913124,-0.352186083794,-0.010465193540,7.150120258331,0.566649913788,9.104944229126
912,9.127753973007,0.175446614623,-0.358903318644,-0.014980960637,6.294300079346,0.709613561630,9.976438522339
913,9.141166210175,0.140274062753,-0.328091323376,-0.037258274853,6.662771701813,-0.025724979118,8.030141830444
914,9.147697210312,0.136328458786,-0.375246047974,-0.038836725056,5.599566459656,-0.868403732777,9.356647491455
915,9.160949468613,0.103496856987,-0.382310330868,-0.050067242235,6.682001113892,-0.112766660750,8.397644042969
916,9.171300172806,0.067528136075,-0.398983150721,-0.050737414509,7.155933856964,-0.550242900848,6.160631656647
917,9.177822589874,0.048278287053,-0.302468061447,-0.026153676212,6.312760829926,-1.481011390686,6.975049495697
918,9.189697027206,-0.008791459724,-0.282367467880,-0.017448937520,8.341500282288,0.250828921795,2.840925216675
919,9.201100349426,-0.040562853217,-0.249957025051,-0.019303770736,7.322169303894,-0.250464200974,5.363819122314
920,9.214814186096,-0.074768014252,-0.158699482679,-0.022472370416,7.348515033722,-2.057604312897,6.415308952332
921,9.222120523453,0.003778270446,-0.205826029181,-0.013821370900,7.910207271576,-2.875819683075,5.627751350403
922,9.231100797653,0.061885479838,-0.230793699622,-0.000811836217,7.407108306885,-1.772747516632,6.975914001465
923,9.237747907639,0.129377141595,-0.181755632162,0.019376775250,8.531046867371,-1.016465425491,4.262015342712
924,9.257170677185,0.127607747912,-0.183971643448,0.029635882005,8.237523078918,-1.381365299225,4.018670558929
925,9.261125564575,0.126217246056,-0.163250312209,0.032862145454,8.176768302917,-0.345456570387,5.157685756683
926,9.267711162567,0.079665802419,-0.072146065533,0.031206440181,8.532847404480,-1.302297115326,1.821282386780
927,9.284310340881,0.002924571047,0.039225704968,-0.017631255090,7.649270057678,-11.369172096252,17.033218383789
928,9.291378498077,-0.183941230178,-0.339515686035,0.060192875564,-2.617120265961,14.468795776367,21.333749771118
929,9.299422740936,-0.343989849091,-0.627214074135,0.013505027629,4.729935646057,0.868238568306,8.152050971985
930,9.314593076706,-0.502774715424,-0.710162222385,-0.101773567498,7.213826179504,-3.625992298126,-2.677114486694
931,9.321102380753,-0.167672678828,0.071365855634,0.054717250168,4.930403709412,-13.154314994812,6.657062530518
932,9.327744483948,0.395934700966,0.497737646103,-0.014593527652,11.336860656738,-3.582602024078,-6.947778701782
933,9.337638854980,0.663751244545,0.346973598003,-0.089031405747,6.035095214844,-1.286736369133,5.744446754456
934,9.351649045944,0.723794460297,0.268133848906,-0.031902883202,-0.643226683140,-0.263563364744,19.987865447998
935,9.357834815979,0.330321073532,0.035338860005,-0.019875854254,1.784655451775,8.576013565063,18.044567108154
936,9.371447324753,-0.290663897991,-0.348933607340,0.002222853247,1.123051285744,9.034158706665,17.696990966797
937,9.381162166595,-0.716470718384,-0.381978601217,0.027190022171,5.191626071930,10.475602149963,5.988189220428
938,9.388944149017,-0.802078783512,-0.267300367355,-0.002481614240,7.856796264648,-6.690466403961,3.398104190826
939,9.397801399231,-0.356803119183,-0.072980575264,0.009957652539,4.959400653839,-5.081326484680,7.089673995972
940,9.411175966263,0.151735365391,0.183304920793,0.010327020660,9.573052406311,-3.396173715591,-1.438464760780
941,9.424378633499,0.668770670891,0.289461076260,0.018856965005,7.223717212677,-6.757523059845,3.676807403564
942,9.454213619232,0.690448284149,0.163918256760,0.115036912262,2.002063751221,1.077874898911,18.011465072632
943,9.454414129257,0.468826651573,-0.000154126610,0.050405386835,2.045519113541,4.269104003906,16.799913406372
944,9.454457759857,-0.103509664536,-0.212181121111,0.056509342045,5.422056674957,7.947487354279,8.968124389648
945,9.468428373337,-0.452374070883,-0.260448962450,0.051664751023,6.505879402161,4.335128307343,4.477858543396
946,9.472342967987,-0.427789360285,-0.103332914412,0.032509256154,5.767405986786,0.705860376358,5.548274993896
947,9.480390071869,-0.179329320788,0.052104089409,0.073794573545,8.357495307922,-2.814385652542,1.601164460182
948,9.487827777863,0.047687467188,0.114826157689,0.063886262476,6.811856746674,-3.267425060272,6.901598930359
949,9.501258134842,0.197830766439,0.135801762342,0.043855596334,4.736151695251,-2.414042711258,12.362196922302
950,9.508294820786,0.217111289501,0.021628260612,0.052462838590,5.872992992401,-1.120898008347,9.757179260254
951,9.524408817291,0.138825267553,-0.032359033823,0.023581547663,5.916831016541,-0.824570596218,8.516196250916
952,9.531603097916,0.008929484524,-0.001465010922,0.029855920002,4.602462291718,0.476905226707,11.563443183899
953,9.539033174515,-0.082514494658,-0.065486975014,0.004749534186,7.081810474396,0.021700838581,5.987969398499
954,9.550084352493,-0.145448282361,-0.141139134765,-0.022820373997,5.626301288605,1.023400187492,8.122378349304
955,9.561058282852,-0.052441693842,-0.004429203458,-0.012757044286,5.885283470154,-1.071384429932,7.181482315063
956,9.567807674408,0.226500496268,0.044717058539,0.017121281475,8.140730857849,-0.257647633553,2.418352365494
957,9.579437255859,0.342093110085,0.051408838481,0.054689686745,7.106093883514,0.361132144928,4.522581577301
958,9.592713117599,0.328396499157,0.095417574048,0.039571505040,5.094024181366,2.038018226624,11.015595436096
959,9.599270343781,0.106294050813,-0.025994593278,0.019554393366,7.865113735199,4.109976768494,5.426204204559
960,9.625636577606,-0.237579941750,-0.101897075772,-0.003552737646,5.069495201111,4.248050689697,11.683848381042
961,9.627868652344,-0.480142623186,0.000309500349,-0.037604324520,6.716782093048,3.167968988419,6.602998256683
962,9.634526252747,-0.444379419088,-0.011798948981,-0.042266331613,8.024130821228,0.006676838268,4.189848899841
963,9.641134977341,-0.260072588921,0.035235848278,-0.025641139597,7.193172931671,-1.398135304451,5.946463584900
964,9.651836872101,0.029701465741,0.152227476239,0.005887771957,7.407342910767,-1.373842239380,5.375654220581
965,9.657733917236,0.199587136507,0.104975320399,0.015543416142,6.603443622589,-0.441400319338,7.174027919769
966,9.667928457260,0.144873008132,-0.018063813448,0.015358285047,5.295921325684,3.388661146164,11.031090736389
967,9.683578014374,-0.109379075468,-0.091260254383,-0.010312801227,6.201077461243,3.520722866058,8.720979690552
968,9.687795400620,-0.355804949999,-0.131331995130,-0.030675962567,7.910342693329,4.641214847565,6.288047313690
969,9.697878837585,-0.485000014305,-0.130202323198,-0.038525998592,8.438177108765,3.804769992828,4.447766304016
970,9.711448431015,-0.355454832315,-0.040768072009,-0.102882549167,6.623641490936,-3.347345352173,6.106904983521
971,9.717839002609,-0.200787290931,0.054964605719,-0.073606669903,7.673860073090,0.051719050854,4.088725566864
972,9.735773324966,-0.048170994967,0.023022089154,-0.073403462768,6.590579509735,0.877296626568,5.726514339447
973,9.741138696671,0.032192595303,0.035181090236,-0.056592177600,7.615358829498,2.747709274292,4.322711467743
974,9.748090744019,0.094771087170,0.039849508554,-0.045045066625,8.780564308167,-1.970718741417,2.445660352707
975,9.760827541351,0.216040670872,0.100700125098,-0.015937967226,10.658195495605,2.608823060989,5.001464843750
976,9.771334886551,0.478173851967,0.223335817456,-0.081457838416,7.426724433899,11.046757698059,6.220036029816
977,9.778107881546,0.759544849396,-0.243716508150,-0.205605566502,-0.376121610403,-20.126890182495,16.036331176758
978,9.787786722183,0.579865694046,-0.317591279745,0.012771643698,1.377786636353,-11.882623672485,11.321227073669
979,9.801696777344,0.494276612997,-0.253294974566,0.075339689851,9.097409248352,-0.735732853413,-3.603682994843
980,9.808677196503,0.051167137921,0.220393016934,0.167773663998,3.764315366745,9.593947410583,7.634798049927
981,9.817692518234,-0.243733659387,0.392132312059,0.095122426748,11.530895233154,4.488461971283,0.087791085243
982,9.838619470596,-0.733198344707,0.460993677378,0.129032582045,4.247685432434,7.811642169952,13.902255058289
983,9.844486951828,-0.978042304516,0.619262039661,0.060944374651,4.496740818024,-2.324442863464,11.212018966675
984,9.853277206421,-0.699428737164,0.274602353573,0.094189412892,2.925453901291,-4.617661952972,17.861095428467
985,9.861532211304,-0.056178163737,0.034486811608,0.099442891777,1.388584256172,-5.413367748260,13.267841339111
986,9.868252277374,0.490241140127,-0.216551423073,0.090605594218,4.851801395416,-10.696507453918,8.482909202576
987,9.879119396210,0.808260440826,-0.107769712806,0.120719425380,4.145407199860,-3.236914157867,10.323566436768
988,9.897749185562,0.550984978676,0.080926842988,0.180337831378,4.573674201965,1.280698418617,2.986408710480
989,9.899638652802,0.127635791898,0.147472113371,0.119806036353,9.310595512390,6.429772853851,-0.988405644894
990,9.908327817917,-0.360659360886,0.330180197954,0.037711277604,6.467851638794,2.502779960632,2.108439207077
991,9.921787738800,-0.641066253185,0.492187470198,0.002113343216,0.365903884172,-3.389436721802,19.072540283203
992,9.931702852249,-0.504690408707,0.195107996464,-0.057433199137,4.001298427582,-1.354142546654,11.727744102478
993,9.937730550766,-0.159092932940,-0.044915042818,-0.054849598557,4.706366062164,-7.184937953949,10.777537345886
994,9.951704502106,0.369583934546,-0.025032805279,-0.044596932828,4.484865188599,-5.922150135040,10.485626220703
995,9.958764076233,0.660248517990,-0.039449132979,-0.006402924657,5.298355579376,-2.994496583939,7.786336898804
996,9.967757225037,0.598524451256,-0.037027698010,-0.022584713995,5.971611022949,0.900407075882,6.419250488281
997,9.981751680374,0.294883191586,0.163377597928,-0.047873064876,6.124240398407,2.378500699997,5.809037208557
998,9.987918376923,-0.108483888209,0.206484451890,-0.087167158723,6.814118385315,1.187612533569,5.008632183075
999,9.997656822205,-0.414713889360,0.071498937905,-0.131855934858,5.333055496216,1.612584233284,11.269733428955
1000,10.015184402466,-0.461258113384,0.097830452025,-0.132888004184,5.576178550720,-0.924184262753,9.607070922852
1001,10.017724514008,-0.283280581236,0.067194543779,-0.115414224565,6.373332977295,-3.929749965668,8.476827621460
1002,10.027785539627,0.066918164492,-0.028535643592,-0.053046502173,5.492576599121,-3.867659091949,11.577545166016
1003,10.040982723236,0.284759223461,-0.008280092850,-0.028505278751,5.901710987091,-2.650971174240,9.565095901489
1004,10.053332567215,0.317162841558,0.057199951261,-0.007244904526,8.278222084045,1.776563048363,3.272722721100
1005,10.057677030563,0.155821606517,0.061945203692,0.010147868656,6.126403331757,2.114817142487,8.000022888184
1006,10.071101665497,-0.130061611533,0.101481109858,-0.014011170715,6.180489540100,2.974189758301,7.557348728180
1007,10.078350305557,-0.366454899311,0.134017273784,-0.028522947803,6.689832210541,2.355483770370,5.626664161682
1008,10.097362279892,-0.434325933456,0.108827389777,-0.009810233489,5.353689670563,-0.317432463169,10.916131973267
1009,10.101344347000,-0.263112336397,0.036423332989,0.019941151142,5.709456443787,-1.407422900200,10.497363090515
1010,10.108205080032,0.109517581761,-0.052002865821,0.057451613247,6.421223163605,-1.689045667648,7.257534503937
1011,10.118264675140,0.394809752703,-0.060873143375,0.102898687124,6.699107646942,-1.942263841629,6.847620010376
1012,10.131056308746,0.559179067612,-0.027477540076,0.134911656380,7.079502582550,-2.632313966751,6.343167304993
1013,10.144565820694,0.546356379986,0.005347467493,0.106715433300,7.000210285187,-1.812350749969,3.741144657135
1014,10.151121139526,0.345456808805,0.117251239717,0.126590982080,7.378810882568,-1.566800951958,6.513007164001
1015,10.161032199860,0.168137595057,0.161496624351,0.098988421261,7.329453945160,-2.118901252747,4.900254249573
1016,10.167738676071,0.046533502638,0.110292136669,0.068809315562,6.793005943298,-0.897465348244,7.951263904572
1017,10.177744865417,0.015111625195,0.069410055876,0.033416152000,6.915859699249,-3.348275184631,7.247977256775
1018,10.191097974777,-0.023735415190,0.034357383847,0.027804438025,6.168646335602,-1.270671606064,8.806820869446
1019,10.197791814804,0.022384963930,-0.011832680553,-0.026274049655,7.508150100708,-3.961596965790,6.080548763275
1020,10.208122968674,0.003767382354,-0.018959002569,-0.031485721469,7.195718288422,-0.678706347942,6.039647102356
1021,10.220974206924,0.024624440819,0.039004139602,-0.044860273600,8.012425422668,-2.810845375061,3.801636934280
1022,10.233676195145,-0.053447991610,0.023064279929,-0.049689479172,7.912113189697,-1.109899163246,5.797417163849
1023,10.238100051880,-0.111147843301,0.074332505465,-0.048543222249,9.388356208801,-0.806652545929,3.171518325806
1024,10.251104593277,-0.183562919497,0.028735810891,-0.112597510219,8.059018135071,-5.418743610382,4.871192932129
1025,10.257774591446,-0.686803340912,-0.291863143444,-0.020495157689,-2.319043874741,3.516175746918,21.749557495117
1026,10.267807483673,-0.310233741999,-0.331976324320,-0.158491641283,4.081822395325,4.432001590729,2.177877426147
1027,10.282716035843,-0.293051540852,-0.433052837849,-0.245364248753,13.747460365295,4.719036102295,-12.030691146851
1028,10.287649631500,-0.081819713116,-0.044886626303,-0.235393971205,0.885004937649,-9.775939941406,16.574058532715
1029,10.297668218613,0.467834860086,0.464725822210,-0.138119250536,8.321172714233,-1.878845453262,5.876410007477
1030,10.311386823654,0.610074043274,0.349610805511,-0.094977013767,10.461266517639,-3.594144821167,-1.669596314430
1031,10.317707777023,0.713107705116,0.376517444849,-0.057377465069,1.456118226051,7.637934684753,16.556755065918
1032,10.327732324600,0.460689991713,0.242563396692,-0.017090367153,-0.270700246096,4.317623615265,21.312974929810
1033,10.341585397720,0.048606123775,-0.038680091500,-0.004199707415,3.163813591003,4.068443298340,10.706754684448
1034,10.354329109192,-0.326286137104,-0.193014651537,-0.010786615312,3.306363582611,7.780681610107,10.096787452698
1035,10.361037731171,-0.489905238152,-0.005532924552,0.013939269818,5.968345165253,-0.556029796600,4.409630775452
1036,10.371580600739,-0.299389481544,-0.002551657846,0.031272247434,5.776446342468,-3.745676279068,6.135316371918
1037,10.386599063873,0.039241574705,0.234251916409,0.102728441358,6.347034931183,-2.675285339355,3.969465255737
1038,10.388449907303,0.427876740694,0.332860559225,0.104464232922,7.048737049103,-3.779820442200,3.633417844772
1039,10.408226490021,0.542148530483,0.184585988522,0.125036895275,2.080599784851,0.951863110065,15.408719062805
1040,10.408229112625,0.322037369013,0.097873531282,0.103214204311,1.645802855492,4.165544509888,16.213947296143
1041,10.417881250381,-0.073171310127,0.015483523719,0.074689388275,5.243396282196,5.292353153229,8.011692047119
1042,10.431236982346,-0.445855617523,-0.080102473497,0.047650396824,5.096448421478,3.780553340912,9.394234657288
1043,10.437801599503,-0.565384030342,-0.082807153463,0.012402309105,5.306927204132,0.032195467502,8.289128303528
1044,10.454370021820,-0.430346637964,-0.036008559167,0.020249489695,5.833047866821,-2.467117547989,5.775432586670
1045,10.465512275696,-0.104656957090,0.137216761708,0.037157379091,5.503183841705,-2.768312215805,7.049755573273
1046,10.468703269958,0.218256652355,0.159801915288,0.066165998578,5.501924991608,-2.445276498795,7.827506065369
1047,10.477634191513,0.356219440699,0.062620736659,0.055112373084,4.750972747803,-0.371427059174,10.955826759338
1048,10.491562843323,0.275835156441,0.027936268598,0.035689126700,5.377651214600,1.852769017220,9.988347053528
1049,10.501756429672,-0.003101341426,-0.042032916099,0.013393021189,5.624478816986,3.432860136032,10.025675773621
1050,10.507727622986,-0.252127021551,-0.102903470397,-0.010534398258,4.821105957031,2.852707862854,10.781756401062
1051,10.521011352539,-0.348966777325,-0.076604969800,-0.028618108481,5.944425106049,0.699941277504,7.860986232758
1052,10.527702808380,-0.258392870426,0.013839910738,-0.028245966882,6.775185585022,-1.477068066597,5.993742942810
1053,10.537756681442,-0.036494348198,0.024280115962,-0.009120150469,6.314326286316,-1.671614527702,6.157100200653
1054,10.551255941391,0.235367819667,0.078824311495,0.007080251351,6.437878608704,-1.781752109528,6.026272773743
1055,10.567088365555,0.413819342852,0.097529232502,0.015893854201,5.799907684326,-1.197339057922,8.637693405151
1056,10.571053743362,0.446504801512,0.000873331621,0.017134703696,5.027123928070,1.366710543633,10.882619857788
1057,10.588739633560,0.157903671265,-0.063533633947,0.015004994348,5.139561653137,5.130956172943,10.293087959290
1058,10.588742494583,-0.190325960517,-0.113812893629,-0.022466730326,5.932790279388,5.732231616974,8.781941413879
1059,10.599778175354,-0.439605921507,-0.157898992300,-0.057296514511,6.900390625000,2.907988071442,6.831500053406
1060,10.612190961838,-0.477204382420,-0.133353546262,-0.069523729384,7.266979217529,0.117000930011,5.687538146973
1061,10.617704391479,-0.417618274689,-0.069800533354,-0.056063987315,7.981556892395,0.307742774487,3.948607683182
