%time,field.header.seq,field.header.stamp,field.header.frame_id,field.orientation.x,field.orientation.y,field.orientation.z,field.orientation.w,field.orientation_covariance0,field.orientation_covariance1,field.orientation_covariance2,field.orientation_covariance3,field.orientation_covariance4,field.orientation_covariance5,field.orientation_covariance6,field.orientation_covariance7,field.orientation_covariance8,field.angular_velocity.x,field.angular_velocity.y,field.angular_velocity.z,field.angular_velocity_covariance0,field.angular_velocity_covariance1,field.angular_velocity_covariance2,field.angular_velocity_covariance3,field.angular_velocity_covariance4,field.angular_velocity_covariance5,field.angular_velocity_covariance6,field.angular_velocity_covariance7,field.angular_velocity_covariance8,field.linear_acceleration.x,field.linear_acceleration.y,field.linear_acceleration.z,field.linear_acceleration_covariance0,field.linear_acceleration_covariance1,field.linear_acceleration_covariance2,field.linear_acceleration_covariance3,field.linear_acceleration_covariance4,field.linear_acceleration_covariance5,field.linear_acceleration_covariance6,field.linear_acceleration_covariance7,field.linear_acceleration_covariance8
117735250000,11048,117735250000,RH_EXTIMU,2.2932715788e-06,1.53196171221e-05,-0.703285780478,0.71090724482,0.0,0.0,0.0,0.0,0.0,0.0,0.0,0.0,0.0,1.19800998937e-07,-8.13380203893e-09,-7.22038459104e-05,0.0,0.0,0.0,0.0,0.0,0.0,0.0,0.0,0.0,-0.000245457587107,-0.000181612558247,9.8100077031,0.0,0.0,0.0,0.0,0.0,0.0,0.0,0.0,0.0
117737750000,11049,117737750000,RH_EXTIMU,2.29313402886e-06,1.53196621872e-05,-0.70328584464,0.710907181346,0.0,0.0,0.0,0.0,0.0,0.0,0.0,0.0,0.0,-1.0268029415e-07,-5.10996651005e-08,-7.22029453453e-05,0.0,0.0,0.0,0.0,0.0,0.0,0.0,0.0,0.0,-0.000246233372419,-0.00017714749759,9.81001157075,0.0,0.0,0.0,0.0,0.0,0.0,0.0,0.0,0.0
117737750000,11050,117740250000,RH_EXTIMU,2.29307998339e-06,1.53197209386e-05,-0.703285908801,0.710907117872,0.0,0.0,0.0,0.0,0.0,0.0,0.0,0.0,0.0,-6.28894961166e-08,3.66612768662e-09,-7.22022488535e-05,0.0,0.0,0.0,0.0,0.0,0.0,0.0,0.0,0.0,-0.000244992819707,-0.000178649476366,9.80999936342,0.0,0.0,0.0,0.0,0.0,0.0,0.0,0.0,0.0
117742750000,11051,117742750000,RH_EXTIMU,2.29322015822e-06,1.531966497e-05,-0.703285972962,0.710907054399,0.0,0.0,0.0,0.0,0.0,0.0,0.0,0.0,0.0,1.12113343221e-07,4.76958204019e-08,-7.22016100777e-05,0.0,0.0,0.0,0.0,0.0,0.0,0.0,0.0,0.0,-0.000244525990158,-0.000181660653484,9.80999679571,0.0,0.0,0.0,0.0,0.0,0.0,0.0,0.0,0.0
117745250000,11052,117745250000,RH_EXTIMU,2.293183196e-06,1.53196615055e-05,-0.703286037122,0.710906990927,0.0,0.0,0.0,0.0,0.0,0.0,0.0,0.0,0.0,-1.81693540833e-08,-2.21061727875e-08,-7.22009336014e-05,0.0,0.0,0.0,0.0,0.0,0.0,0.0,0.0,0.0,-0.000246087327017,-0.000178542674556,9.80998704598,0.0,0.0,0.0,0.0,0.0,0.0,0.0,0.0,0.0
117747750000,11053,117747750000,RH_EXTIMU,2.29329139507e-06,1.53195613238e-05,-0.703286101282,0.710906927455,0.0,0.0,0.0,0.0,0.0,0.0,0.0,0.0,0.0,1.18803441961e-07,4.56022684731e-09,-7.22002706405e-05,0.0,0.0,0.0,0.0,0.0,0.0,0.0,0.0,0.0,-0.000244808220716,-0.000181947765531,9.81000178509,0.0,0.0,0.0,0.0,0.0,0.0,0.0,0.0,0.0
117750250000,11054,117750250000,RH_EXTIMU,2.29320463572e-06,1.53195684906e-05,-0.703286165441,0.710906863984,0.0,0.0,0.0,0.0,0.0,0.0,0.0,0.0,0.0,-5.24717115333e-08,-4.40772440141e-08,-7.21995169286e-05,0.0,0.0,0.0,0.0,0.0,0.0,0.0,0.0,0.0,-0.000246213828915,-0.000178047842864,9.80999242585,0.0,0.0,0.0,0.0,0.0,0.0,0.0,0.0,0.0
117750250000,11055,117752750000,RH_EXTIMU,2.2932913045e-06,1.53195007692e-05,-0.703286229599,0.710906800514,0.0,0.0,0.0,0.0,0.0,0.0,0.0,0.0,0.0,8.82954801468e-08,1.09076674284e-08,-7.21985776802e-05,0.0,0.0,0.0,0.0,0.0,0.0,0.0,0.0,0.0,-0.00024522225298,-0.000180891416039,9.81003509629,0.0,0.0,0.0,0.0,0.0,0.0,0.0,0.0,0.0
117755250000,11056,117755250000,RH_EXTIMU,2.29309344794e-06,1.53196727566e-05,-0.703286293756,0.710906737044,0.0,0.0,0.0,0.0,0.0,0.0,0.0,0.0,0.0,-2.08388404483e-07,-1.28460937909e-08,-7.21977440579e-05,0.0,0.0,0.0,0.0,0.0,0.0,0.0,0.0,0.0,-0.000245213461921,-0.000175906863484,9.81000608935,0.0,0.0,0.0,0.0,0.0,0.0,0.0,0.0,0.0
117757750000,11057,117757750000,RH_EXTIMU,2.29316299034e-06,1.53196814379e-05,-0.703286357913,0.710906673575,0.0,0.0,0.0,0.0,0.0,0.0,0.0,0.0,0.0,3.55688884737e-08,4.47240318075e-08,-7.21971848869e-05,0.0,0.0,0.0,0.0,0.0,0.0,0.0,0.0,0.0,-0.000244776732528,-0.000180521462445,9.80998867347,0.0,0.0,0.0,0.0,0.0,0.0,0.0,0.0,0.0
117762750000,11058,117760250000,RH_EXTIMU,2.29329336854e-06,1.53195824688e-05,-0.703286422069,0.710906610106,0.0,0.0,0.0,0.0,0.0,0.0,0.0,0.0,0.0,1.30734970339e-07,1.77285196194e-08,-7.21965870892e-05,0.0,0.0,0.0,0.0,0.0,0.0,0.0,0.0,0.0,-0.000244880811467,-0.00018178797353,9.80998622901,0.0,0.0,0.0,0.0,0.0,0.0,0.0,0.0,0.0
117762750000,11059,117762750000,RH_EXTIMU,2.29346102476e-06,1.53194455635e-05,-0.703286486225,0.710906546638,0.0,0.0,0.0,0.0,0.0,0.0,0.0,0.0,0.0,1.73279948265e-07,1.71269066204e-08,-7.21959389915e-05,0.0,0.0,0.0,0.0,0.0,0.0,0.0,0.0,0.0,-0.000245332844923,-0.000182313647277,9.80999880236,0.0,0.0,0.0,0.0,0.0,0.0,0.0,0.0,0.0
117765250000,11060,117765250000,RH_EXTIMU,2.29328861395e-06,1.53194931639e-05,-0.70328655038,0.710906483171,0.0,0.0,0.0,0.0,0.0,0.0,0.0,0.0,0.0,-1.23933033463e-07,-6.92717073101e-08,-7.21950602553e-05,0.0,0.0,0.0,0.0,0.0,0.0,0.0,0.0,0.0,-0.000246438505825,-0.000176454593377,9.81000353275,0.0,0.0,0.0,0.0,0.0,0.0,0.0,0.0,0.0
117767750000,11061,117767750000,RH_EXTIMU,2.2932347149e-06,1.53195711494e-05,-0.703286614534,0.710906419704,0.0,0.0,0.0,0.0,0.0,0.0,0.0,0.0,0.0,-7.36279925846e-08,1.46872759233e-08,-7.21944124447e-05,0.0,0.0,0.0,0.0,0.0,0.0,0.0,0.0,0.0,-0.000244868756476,-0.000178376840913,9.80999213137,0.0,0.0,0.0,0.0,0.0,0.0,0.0,0.0,0.0
117770250000,11062,117770250000,RH_EXTIMU,2.29324288354e-06,1.53194222205e-05,-0.703286678688,0.710906356238,0.0,0.0,0.0,0.0,0.0,0.0,0.0,0.0,0.0,8.93401640611e-08,-7.94435817158e-08,-7.21937101628e-05,0.0,0.0,0.0,0.0,0.0,0.0,0.0,0.0,0.0,-0.000246818966152,-0.000181203011244,9.80999464601,0.0,0.0,0.0,0.0,0.0,0.0,0.0,0.0,0.0
117772750000,11063,117772750000,RH_EXTIMU,2.29334011956e-06,1.53193373544e-05,-0.703286742841,0.710906292773,0.0,0.0,0.0,0.0,0.0,0.0,0.0,0.0,0.0,1.03951387808e-07,7.10245973005e-09,-7.21930125849e-05,0.0,0.0,0.0,0.0,0.0,0.0,0.0,0.0,0.0,-0.000244546602605,-0.000181295434791,9.81000279832,0.0,0.0,0.0,0.0,0.0,0.0,0.0,0.0,0.0
117775250000,11064,117775250000,RH_EXTIMU,2.29339758781e-06,1.53193252454e-05,-0.703286806993,0.710906229308,0.0,0.0,0.0,0.0,0.0,0.0,0.0,0.0,0.0,4.03991495598e-08,2.61067521579e-08,-7.21921821507e-05,0.0,0.0,0.0,0.0,0.0,0.0,0.0,0.0,0.0,-0.00024530078765,-0.000179816386255,9.81001520402,0.0,0.0,0.0,0.0,0.0,0.0,0.0,0.0,0.0
117777750000,11065,117777750000,RH_EXTIMU,2.29321328605e-06,1.53194107569e-05,-0.703286871145,0.710906165844,0.0,0.0,0.0,0.0,0.0,0.0,0.0,0.0,0.0,-1.52025648402e-07,-5.44010003828e-08,-7.21914868296e-05,0.0,0.0,0.0,0.0,0.0,0.0,0.0,0.0,0.0,-0.000246114543589,-0.000176779202578,9.80998767173,0.0,0.0,0.0,0.0,0.0,0.0,0.0,0.0,0.0
117780250000,11066,117780250000,RH_EXTIMU,2.29346682906e-06,1.53193439089e-05,-0.703286935296,0.71090610238,0.0,0.0,0.0,0.0,0.0,0.0,0.0,0.0,0.0,1.82709551224e-07,1.05292710498e-07,-7.21908096192e-05,0.0,0.0,0.0,0.0,0.0,0.0,0.0,0.0,0.0,-0.000243455110003,-0.000182903971445,9.81001128283,0.0,0.0,0.0,0.0,0.0,0.0,0.0,0.0,0.0
117782750000,11067,117782750000,RH_EXTIMU,2.29346689621e-06,1.53194037111e-05,-0.703286999447,0.710906038917,0.0,0.0,0.0,0.0,0.0,0.0,0.0,0.0,0.0,-3.2705656399e-08,3.47088488136e-08,-7.21901204274e-05,0.0,0.0,0.0,0.0,0.0,0.0,0.0,0.0,0.0,-0.000244904453409,-0.000178694839104,9.80999319876,0.0,0.0,0.0,0.0,0.0,0.0,0.0,0.0,0.0
117785250000,11068,117785250000,RH_EXTIMU,2.29354782256e-06,1.53193775937e-05,-0.703287063597,0.710905975455,0.0,0.0,0.0,0.0,0.0,0.0,0.0,0.0,0.0,6.16218465478e-08,3.1338040657e-08,-7.21894458253e-05,0.0,0.0,0.0,0.0,0.0,0.0,0.0,0.0,0.0,-0.000244950317669,-0.000180523918674,9.80999732479,0.0,0.0,0.0,0.0,0.0,0.0,0.0,0.0,0.0
117787750000,11069,117787750000,RH_EXTIMU,2.29347003814e-06,1.53193682817e-05,-0.703287127746,0.710905911993,0.0,0.0,0.0,0.0,0.0,0.0,0.0,0.0,0.0,-3.80961105574e-08,-4.83997246667e-08,-7.21887250549e-05,0.0,0.0,0.0,0.0,0.0,0.0,0.0,0.0,0.0,-0.000246498335555,-0.000178285597786,9.80999058003,0.0,0.0,0.0,0.0,0.0,0.0,0.0,0.0,0.0
117790250000,11070,117790250000,RH_EXTIMU,2.29348046574e-06,1.53192806352e-05,-0.703287191895,0.710905848532,0.0,0.0,0.0,0.0,0.0,0.0,0.0,0.0,0.0,5.6145567215e-08,-4.3319799211e-08,-7.21880606691e-05,0.0,0.0,0.0,0.0,0.0,0.0,0.0,0.0,0.0,-0.000245644492047,-0.000180658336284,9.80999408856,0.0,0.0,0.0,0.0,0.0,0.0,0.0,0.0,0.0
117792750000,11071,117792750000,RH_EXTIMU,2.29357044321e-06,1.53191846988e-05,-0.703287256043,0.710905785072,0.0,0.0,0.0,0.0,0.0,0.0,0.0,0.0,0.0,1.06051697715e-07,-3.27738287266e-09,-7.21873195951e-05,0.0,0.0,0.0,0.0,0.0,0.0,0.0,0.0,0.0,-0.000245212177494,-0.000181344617064,9.81000696248,0.0,0.0,0.0,0.0,0.0,0.0,0.0,0.0,0.0
117795250000,11072,117795250000,RH_EXTIMU,2.29356910901e-06,1.53191888447e-05,-0.70328732019,0.710905721612,0.0,0.0,0.0,0.0,0.0,0.0,0.0,0.0,0.0,-2.18879634395e-09,2.2672175202e-09,-7.21864858755e-05,0.0,0.0,0.0,0.0,0.0,0.0,0.0,0.0,0.0,-0.000245192142085,-0.000179227576991,9.8100126012,0.0,0.0,0.0,0.0,0.0,0.0,0.0,0.0,0.0
117797750000,11073,117797750000,RH_EXTIMU,2.293528312e-06,1.53192850058e-05,-0.703287384336,0.710905658153,0.0,0.0,0.0,0.0,0.0,0.0,0.0,0.0,0.0,-7.64028065804e-08,3.2395600678e-08,-7.21857442193e-05,0.0,0.0,0.0,0.0,0.0,0.0,0.0,0.0,0.0,-0.000244845794011,-0.00017800513415,9.81000374321,0.0,0.0,0.0,0.0,0.0,0.0,0.0,0.0,0.0
117800250000,11074,117800250000,RH_EXTIMU,2.2934606798e-06,1.531933274e-05,-0.703287448482,0.710905594694,0.0,0.0,0.0,0.0,0.0,0.0,0.0,0.0,0.0,-6.44181789099e-08,-1.02443096786e-08,-7.21850481782e-05,0.0,0.0,0.0,0.0,0.0,0.0,0.0,0.0,0.0,-0.000245794011011,-0.000178191663677,9.80999156635,0.0,0.0,0.0,0.0,0.0,0.0,0.0,0.0,0.0
117802750000,11075,117802750000,RH_EXTIMU,2.29352055818e-06,1.531923889e-05,-0.703287512628,0.710905531236,0.0,0.0,0.0,0.0,0.0,0.0,0.0,0.0,0.0,8.77596523245e-08,-1.90253739978e-08,-7.21843798182e-05,0.0,0.0,0.0,0.0,0.0,0.0,0.0,0.0,0.0,-0.000245466932176,-0.000181250623895,9.8099973546,0.0,0.0,0.0,0.0,0.0,0.0,0.0,0.0,0.0
117805250000,11076,117805250000,RH_EXTIMU,2.29352719295e-06,1.53191733903e-05,-0.703287576772,0.710905467779,0.0,0.0,0.0,0.0,0.0,0.0,0.0,0.0,0.0,4.15280027586e-08,-3.28583567766e-08,-7.21836499285e-05,0.0,0.0,0.0,0.0,0.0,0.0,0.0,0.0,0.0,-0.000245872566982,-0.000179979310376,9.80999779452,0.0,0.0,0.0,0.0,0.0,0.0,0.0,0.0,0.0
117807750000,11077,117807750000,RH_EXTIMU,2.29361719919e-06,1.53191164788e-05,-0.703287640916,0.710905404322,0.0,0.0,0.0,0.0,0.0,0.0,0.0,0.0,0.0,8.41113856269e-08,1.89332654046e-08,-7.218295102e-05,0.0,0.0,0.0,0.0,0.0,0.0,0.0,0.0,0.0,-0.000244600681146,-0.000181032282798,9.81000410965,0.0,0.0,0.0,0.0,0.0,0.0,0.0,0.0,0.0
117810250000,11078,117810250000,RH_EXTIMU,2.29370588681e-06,1.53191312664e-05,-0.70328770506,0.710905340866,0.0,0.0,0.0,0.0,0.0,0.0,0.0,0.0,0.0,4.30214152016e-08,5.89683425628e-08,-7.2182156293e-05,0.0,0.0,0.0,0.0,0.0,0.0,0.0,0.0,0.0,-0.000244495852793,-0.000180157932095,9.81001515412,0.0,0.0,0.0,0.0,0.0,0.0,0.0,0.0,0.0
117812750000,11079,117812750000,RH_EXTIMU,2.293627173e-06,1.53192368722e-05,-0.703287769202,0.710905277411,0.0,0.0,0.0,0.0,0.0,0.0,0.0,0.0,0.0,-1.03280942112e-07,1.64337949599e-08,-7.21815268012e-05,0.0,0.0,0.0,0.0,0.0,0.0,0.0,0.0,0.0,-0.000245120458682,-0.000177534796119,9.80998176238,0.0,0.0,0.0,0.0,0.0,0.0,0.0,0.0,0.0
117815250000,11080,117815250000,RH_EXTIMU,2.29371554886e-06,1.53191212973e-05,-0.703287833345,0.710905213956,0.0,0.0,0.0,0.0,0.0,0.0,0.0,0.0,0.0,1.16189917151e-07,-1.53473252791e-08,-7.21807632984e-05,0.0,0.0,0.0,0.0,0.0,0.0,0.0,0.0,0.0,-0.000245919893263,-0.000181354425988,9.81000829963,0.0,0.0,0.0,0.0,0.0,0.0,0.0,0.0,0.0
117817750000,11081,117817750000,RH_EXTIMU,2.29356483423e-06,1.53191175175e-05,-0.703287897486,0.710905150502,0.0,0.0,0.0,0.0,0.0,0.0,0.0,0.0,0.0,-8.26858616952e-08,-8.62863758714e-08,-7.21800781003e-05,0.0,0.0,0.0,0.0,0.0,0.0,0.0,0.0,0.0,-0.00024653876675,-0.000177867782103,9.80998484886,0.0,0.0,0.0,0.0,0.0,0.0,0.0,0.0,0.0
117820250000,11082,117820250000,RH_EXTIMU,2.29366496674e-06,1.53190255687e-05,-0.703287961627,0.710905087048,0.0,0.0,0.0,0.0,0.0,0.0,0.0,0.0,0.0,1.09583408647e-07,4.70408199622e-09,-7.21794474583e-05,0.0,0.0,0.0,0.0,0.0,0.0,0.0,0.0,0.0,-0.000245039319774,-0.000181355682441,9.80999444568,0.0,0.0,0.0,0.0,0.0,0.0,0.0,0.0,0.0
117822750000,11083,117822750000,RH_EXTIMU,2.29378833295e-06,1.5318962477e-05,-0.703288025767,0.710905023595,0.0,0.0,0.0,0.0,0.0,0.0,0.0,0.0,0.0,1.06561128218e-07,3.41877406042e-08,-7.21785992039e-05,0.0,0.0,0.0,0.0,0.0,0.0,0.0,0.0,0.0,-0.00024468876112,-0.000181171616384,9.81002275371,0.0,0.0,0.0,0.0,0.0,0.0,0.0,0.0,0.0
117825250000,11084,117825250000,RH_EXTIMU,2.29360382653e-06,1.53191384861e-05,-0.703288089907,0.710904960143,0.0,0.0,0.0,0.0,0.0,0.0,0.0,0.0,0.0,-2.03058814858e-07,-3.04841443468e-09,-7.21777533142e-05,0.0,0.0,0.0,0.0,0.0,0.0,0.0,0.0,0.0,-0.000245584579378,-0.000175469957056,9.8100033381,0.0,0.0,0.0,0.0,0.0,0.0,0.0,0.0,0.0
117827750000,11085,117827750000,RH_EXTIMU,2.29369030993e-06,1.53190989107e-05,-0.703288154045,0.710904896691,0.0,0.0,0.0,0.0,0.0,0.0,0.0,0.0,0.0,7.23539533095e-08,2.68106682297e-08,-7.21771742482e-05,0.0,0.0,0.0,0.0,0.0,0.0,0.0,0.0,0.0,-0.000244759855336,-0.000181412439511,9.80999313688,0.0,0.0,0.0,0.0,0.0,0.0,0.0,0.0,0.0
117830250000,11086,117830250000,RH_EXTIMU,2.29370369771e-06,1.53189843271e-05,-0.703288218184,0.71090483324,0.0,0.0,0.0,0.0,0.0,0.0,0.0,0.0,0.0,7.29846682943e-08,-5.69741562039e-08,-7.2176460484e-05,0.0,0.0,0.0,0.0,0.0,0.0,0.0,0.0,0.0,-0.000246457784194,-0.000180494376204,9.80999361466,0.0,0.0,0.0,0.0,0.0,0.0,0.0,0.0,0.0
117834000000,11087,117832750000,RH_EXTIMU,2.29374880968e-06,1.53189861815e-05,-0.703288282321,0.710904769789,0.0,0.0,0.0,0.0,0.0,0.0,0.0,0.0,0.0,2.55153657902e-08,2.70959136944e-08,-7.21758906825e-05,0.0,0.0,0.0,0.0,0.0,0.0,0.0,0.0,0.0,-0.00024444089491,-0.000179724970632,9.80998414998,0.0,0.0,0.0,0.0,0.0,0.0,0.0,0.0,0.0
117835250000,11088,117835250000,RH_EXTIMU,2.29384431474e-06,1.53188992091e-05,-0.703288346459,0.710904706339,0.0,0.0,0.0,0.0,0.0,0.0,0.0,0.0,0.0,1.04151767937e-07,4.93070927492e-09,-7.21752027048e-05,0.0,0.0,0.0,0.0,0.0,0.0,0.0,0.0,0.0,-0.0002456763195,-0.000181035924299,9.80999620849,0.0,0.0,0.0,0.0,0.0,0.0,0.0,0.0,0.0
117837750000,11089,117837750000,RH_EXTIMU,2.29392503979e-06,1.53188568556e-05,-0.703288410595,0.71090464289,0.0,0.0,0.0,0.0,0.0,0.0,0.0,0.0,0.0,7.06420829626e-08,2.19908083707e-08,-7.21743933102e-05,0.0,0.0,0.0,0.0,0.0,0.0,0.0,0.0,0.0,-0.000244774548526,-0.000180472599878,9.81001374013,0.0,0.0,0.0,0.0,0.0,0.0,0.0,0.0,0.0
117840250000,11090,117840250000,RH_EXTIMU,2.29383411463e-06,1.53189095618e-05,-0.703288474731,0.710904579442,0.0,0.0,0.0,0.0,0.0,0.0,0.0,0.0,0.0,-8.0462997141e-08,-2.05221520842e-08,-7.21736130557e-05,0.0,0.0,0.0,0.0,0.0,0.0,0.0,0.0,0.0,-0.000245817253437,-0.000177933731246,9.81000238445,0.0,0.0,0.0,0.0,0.0,0.0,0.0,0.0,0.0
117842750000,11091,117842750000,RH_EXTIMU,2.29379940787e-06,1.53189257598e-05,-0.703288538866,0.710904515994,0.0,0.0,0.0,0.0,0.0,0.0,0.0,0.0,0.0,-2.79496434611e-08,-9.65502627624e-09,-7.21729035466e-05,0.0,0.0,0.0,0.0,0.0,0.0,0.0,0.0,0.0,-0.000245269647221,-0.000179062655707,9.80999963835,0.0,0.0,0.0,0.0,0.0,0.0,0.0,0.0,0.0
117845250000,11092,117845250000,RH_EXTIMU,2.29391580474e-06,1.5318897069e-05,-0.703288603,0.710904452546,0.0,0.0,0.0,0.0,0.0,0.0,0.0,0.0,0.0,8.32423725969e-08,4.98312058449e-08,-7.21720619108e-05,0.0,0.0,0.0,0.0,0.0,0.0,0.0,0.0,0.0,-0.000244577714384,-0.000180931907794,9.81002265529,0.0,0.0,0.0,0.0,0.0,0.0,0.0,0.0,0.0
117847750000,11093,117847750000,RH_EXTIMU,2.29378125018e-06,1.53189690913e-05,-0.703288667134,0.7109043891,0.0,0.0,0.0,0.0,0.0,0.0,0.0,0.0,0.0,-1.16143928999e-07,-3.40839139757e-08,-7.21712456183e-05,0.0,0.0,0.0,0.0,0.0,0.0,0.0,0.0,0.0,-0.000245952644073,-0.000177430983727,9.8100057464,0.0,0.0,0.0,0.0,0.0,0.0,0.0,0.0,0.0
117850250000,11094,117850250000,RH_EXTIMU,2.29376947572e-06,1.53189997021e-05,-0.703288731267,0.710904325654,0.0,0.0,0.0,0.0,0.0,0.0,0.0,0.0,0.0,-2.30165903617e-08,1.14442430487e-08,-7.21705877692e-05,0.0,0.0,0.0,0.0,0.0,0.0,0.0,0.0,0.0,-0.000244928200716,-0.00017919965894,9.80999257573,0.0,0.0,0.0,0.0,0.0,0.0,0.0,0.0,0.0
117852750000,11095,117852750000,RH_EXTIMU,2.29391222813e-06,1.53189241669e-05,-0.703288795399,0.710904262209,0.0,0.0,0.0,0.0,0.0,0.0,0.0,0.0,0.0,1.24587473043e-07,3.80181438574e-08,-7.21700115213e-05,0.0,0.0,0.0,0.0,0.0,0.0,0.0,0.0,0.0,-0.000244793051607,-0.000181736454851,9.80999089093,0.0,0.0,0.0,0.0,0.0,0.0,0.0,0.0,0.0
117855250000,11096,117855250000,RH_EXTIMU,2.29408158877e-06,1.53188375657e-05,-0.703288859531,0.710904198764,0.0,0.0,0.0,0.0,0.0,0.0,0.0,0.0,0.0,1.45946262954e-07,4.66952492771e-08,-7.21692462596e-05,0.0,0.0,0.0,0.0,0.0,0.0,0.0,0.0,0.0,-0.000244319275825,-0.000182160434341,9.81001263084,0.0,0.0,0.0,0.0,0.0,0.0,0.0,0.0,0.0
117857750000,11097,117857750000,RH_EXTIMU,2.29385849259e-06,1.53189249544e-05,-0.703288923662,0.71090413532,0.0,0.0,0.0,0.0,0.0,0.0,0.0,0.0,0.0,-1.75145237034e-07,-7.51610452355e-08,-7.2168400897e-05,0.0,0.0,0.0,0.0,0.0,0.0,0.0,0.0,0.0,-0.00024749135331,-0.000175272691117,9.80999484185,0.0,0.0,0.0,0.0,0.0,0.0,0.0,0.0,0.0
117860250000,11098,117860250000,RH_EXTIMU,2.29387030537e-06,1.53188320026e-05,-0.703288987792,0.710904071876,0.0,0.0,0.0,0.0,0.0,0.0,0.0,0.0,0.0,5.99181116813e-08,-4.55577702514e-08,-7.21678356225e-05,0.0,0.0,0.0,0.0,0.0,0.0,0.0,0.0,0.0,-0.000245247084824,-0.000181255984365,9.80998723431,0.0,0.0,0.0,0.0,0.0,0.0,0.0,0.0,0.0
117862750000,11099,117862750000,RH_EXTIMU,2.29399719621e-06,1.53187233327e-05,-0.703289051922,0.710904008433,0.0,0.0,0.0,0.0,0.0,0.0,0.0,0.0,0.0,1.34209171098e-07,1.02494809842e-08,-7.21671997493e-05,0.0,0.0,0.0,0.0,0.0,0.0,0.0,0.0,0.0,-0.000245240994457,-0.00018153057982,9.80999387768,0.0,0.0,0.0,0.0,0.0,0.0,0.0,0.0,0.0
117865250000,11100,117865250000,RH_EXTIMU,2.29399746803e-06,1.53186713293e-05,-0.703289116052,0.710903944991,0.0,0.0,0.0,0.0,0.0,0.0,0.0,0.0,0.0,3.03156707213e-08,-2.87628271839e-08,-7.21663940848e-05,0.0,0.0,0.0,0.0,0.0,0.0,0.0,0.0,0.0,-0.00024574933073,-0.00017974890485,9.81000663858,0.0,0.0,0.0,0.0,0.0,0.0,0.0,0.0,0.0
117867750000,11101,117867750000,RH_EXTIMU,2.29396440763e-06,1.53186907067e-05,-0.70328918018,0.710903881549,0.0,0.0,0.0,0.0,0.0,0.0,0.0,0.0,0.0,-2.88022297627e-08,-6.92065188331e-09,-7.21656007441e-05,0.0,0.0,0.0,0.0,0.0,0.0,0.0,0.0,0.0,-0.00024525769481,-0.000178826343134,9.8100085921,0.0,0.0,0.0,0.0,0.0,0.0,0.0,0.0,0.0
117870250000,11102,117870250000,RH_EXTIMU,2.29394633718e-06,1.53187487937e-05,-0.703289244308,0.710903818108,0.0,0.0,0.0,0.0,0.0,0.0,0.0,0.0,0.0,-4.20563221765e-08,2.35281775551e-08,-7.21648537229e-05,0.0,0.0,0.0,0.0,0.0,0.0,0.0,0.0,0.0,-0.00024497837777,-0.000178712729759,9.81000443016,0.0,0.0,0.0,0.0,0.0,0.0,0.0,0.0,0.0
117872750000,11103,117872750000,RH_EXTIMU,2.29395143597e-06,1.53187564506e-05,-0.703289308435,0.710903754668,0.0,0.0,0.0,0.0,0.0,0.0,0.0,0.0,0.0,-5.05902162341e-10,7.88316821443e-09,-7.21641320151e-05,0.0,0.0,0.0,0.0,0.0,0.0,0.0,0.0,0.0,-0.000245254080177,-0.000179525852995,9.81000090119,0.0,0.0,0.0,0.0,0.0,0.0,0.0,0.0,0.0
117875250000,11104,117875250000,RH_EXTIMU,2.2940317782e-06,1.53187306818e-05,-0.703289372562,0.710903691228,0.0,0.0,0.0,0.0,0.0,0.0,0.0,0.0,0.0,6.10931029064e-08,3.12075283234e-08,-7.21634365474e-05,0.0,0.0,0.0,0.0,0.0,0.0,0.0,0.0,0.0,-0.000244781079594,-0.000180580237773,9.81000131487,0.0,0.0,0.0,0.0,0.0,0.0,0.0,0.0,0.0
117875250000,11105,117877750000,RH_EXTIMU,2.29407251297e-06,1.53187061399e-05,-0.703289436688,0.710903627789,0.0,0.0,0.0,0.0,0.0,0.0,0.0,0.0,0.0,3.78770899998e-08,9.62091861207e-09,-7.21627167673e-05,0.0,0.0,0.0,0.0,0.0,0.0,0.0,0.0,0.0,-0.00024525321109,-0.000180024442593,9.81000030626,0.0,0.0,0.0,0.0,0.0,0.0,0.0,0.0,0.0
117880250000,11106,117880250000,RH_EXTIMU,2.29394346129e-06,1.53187137403e-05,-0.703289500813,0.710903564351,0.0,0.0,0.0,0.0,0.0,0.0,0.0,0.0,0.0,-7.67685911979e-08,-6.7626273803e-08,-7.21620025486e-05,0.0,0.0,0.0,0.0,0.0,0.0,0.0,0.0,0.0,-0.000246825806567,-0.000177526781539,9.80998713842,0.0,0.0,0.0,0.0,0.0,0.0,0.0,0.0,0.0
117884000000,11107,117882750000,RH_EXTIMU,2.29404581733e-06,1.53186108043e-05,-0.703289564938,0.710903500913,0.0,0.0,0.0,0.0,0.0,0.0,0.0,0.0,0.0,1.17029581377e-07,-2.93608688345e-10,-7.21614199097e-05,0.0,0.0,0.0,0.0,0.0,0.0,0.0,0.0,0.0,-0.000244569905607,-0.000182029511277,9.80999251816,0.0,0.0,0.0,0.0,0.0,0.0,0.0,0.0,0.0
117884000000,11108,117885250000,RH_EXTIMU,2.29414299372e-06,1.53185815823e-05,-0.703289629062,0.710903437475,0.0,0.0,0.0,0.0,0.0,0.0,0.0,0.0,0.0,7.26098806917e-08,3.87150493313e-08,-7.21607138281e-05,0.0,0.0,0.0,0.0,0.0,0.0,0.0,0.0,0.0,-0.000244850404153,-0.000180295769757,9.80999865111,0.0,0.0,0.0,0.0,0.0,0.0,0.0,0.0,0.0
117884000000,11109,117887750000,RH_EXTIMU,2.29426229492e-06,1.53185869049e-05,-0.703289693185,0.710903374039,0.0,0.0,0.0,0.0,0.0,0.0,0.0,0.0,0.0,6.57568843785e-08,7.08094613516e-08,-7.21600789352e-05,0.0,0.0,0.0,0.0,0.0,0.0,0.0,0.0,0.0,-0.000244120720586,-0.000180585559964,9.80999456027,0.0,0.0,0.0,0.0,0.0,0.0,0.0,0.0,0.0
117890250000,11110,117890250000,RH_EXTIMU,2.29429101847e-06,1.53185391872e-05,-0.703289757308,0.710903310602,0.0,0.0,0.0,0.0,0.0,0.0,0.0,0.0,0.0,4.40854787474e-08,-1.03176479115e-08,-7.21593485472e-05,0.0,0.0,0.0,0.0,0.0,0.0,0.0,0.0,0.0,-0.00024598638619,-0.000179927910379,9.80999922387,0.0,0.0,0.0,0.0,0.0,0.0,0.0,0.0,0.0
117892750000,11111,117892750000,RH_EXTIMU,2.2941041534e-06,1.53184819463e-05,-0.70328982143,0.710903247167,0.0,0.0,0.0,0.0,0.0,0.0,0.0,0.0,0.0,-7.31666244212e-08,-1.37030714333e-07,-7.2158588209e-05,0.0,0.0,0.0,0.0,0.0,0.0,0.0,0.0,0.0,-0.000247453395218,-0.00017797132513,9.8099900986,0.0,0.0,0.0,0.0,0.0,0.0,0.0,0.0,0.0
117895250000,11112,117895250000,RH_EXTIMU,2.29425346957e-06,1.53183901638e-05,-0.703289885552,0.710903183732,0.0,0.0,0.0,0.0,0.0,0.0,0.0,0.0,0.0,1.37461504593e-07,3.24709042037e-08,-7.21579061012e-05,0.0,0.0,0.0,0.0,0.0,0.0,0.0,0.0,0.0,-0.000244139082073,-0.000182088026236,9.81000856193,0.0,0.0,0.0,0.0,0.0,0.0,0.0,0.0,0.0
117897750000,11113,117897750000,RH_EXTIMU,2.29416494343e-06,1.53184488473e-05,-0.703289949673,0.710903120298,0.0,0.0,0.0,0.0,0.0,0.0,0.0,0.0,0.0,-8.24618317088e-08,-1.57733085925e-08,-7.21570918639e-05,0.0,0.0,0.0,0.0,0.0,0.0,0.0,0.0,0.0,-0.000246119398294,-0.000177390627532,9.8100015463,0.0,0.0,0.0,0.0,0.0,0.0,0.0,0.0,0.0
117900250000,11114,117900250000,RH_EXTIMU,2.29410472943e-06,1.53184276885e-05,-0.703290013793,0.710903056864,0.0,0.0,0.0,0.0,0.0,0.0,0.0,0.0,0.0,-2.14382408851e-08,-4.52521220134e-08,-7.21564083489e-05,0.0,0.0,0.0,0.0,0.0,0.0,0.0,0.0,0.0,-0.000245812946347,-0.000179235755088,9.80999377703,0.0,0.0,0.0,0.0,0.0,0.0,0.0,0.0,0.0
117902750000,11115,117902750000,RH_EXTIMU,2.29432176047e-06,1.53183109613e-05,-0.703290077913,0.710902993431,0.0,0.0,0.0,0.0,0.0,0.0,0.0,0.0,0.0,1.90007068417e-07,5.63829202735e-08,-7.21556984201e-05,0.0,0.0,0.0,0.0,0.0,0.0,0.0,0.0,0.0,-0.000243933948847,-0.000183371690358,9.81001690066,0.0,0.0,0.0,0.0,0.0,0.0,0.0,0.0,0.0
117905250000,11116,117905250000,RH_EXTIMU,2.29425633309e-06,1.53184307013e-05,-0.703290142032,0.710902929999,0.0,0.0,0.0,0.0,0.0,0.0,0.0,0.0,0.0,-1.03677417063e-07,3.19469480106e-08,-7.21547740435e-05,0.0,0.0,0.0,0.0,0.0,0.0,0.0,0.0,0.0,-0.000245241122195,-0.000176858238855,9.81001561565,0.0,0.0,0.0,0.0,0.0,0.0,0.0,0.0,0.0
117907750000,11117,117907750000,RH_EXTIMU,2.29409991426e-06,1.53185055725e-05,-0.70329020615,0.710902866567,0.0,0.0,0.0,0.0,0.0,0.0,0.0,0.0,0.0,-1.30181623199e-07,-4.47657064785e-08,-7.21541414544e-05,0.0,0.0,0.0,0.0,0.0,0.0,0.0,0.0,0.0,-0.000246038366215,-0.000177480854079,9.80998410192,0.0,0.0,0.0,0.0,0.0,0.0,0.0,0.0,0.0
117910250000,11118,117910250000,RH_EXTIMU,2.29422321576e-06,1.53184521757e-05,-0.703290270267,0.710902803136,0.0,0.0,0.0,0.0,0.0,0.0,0.0,0.0,0.0,1.01069203007e-07,3.96651282868e-08,-7.21534736193e-05,0.0,0.0,0.0,0.0,0.0,0.0,0.0,0.0,0.0,-0.000244570304429,-0.000181155932692,9.81000127256,0.0,0.0,0.0,0.0,0.0,0.0,0.0,0.0,0.0
117912750000,11119,117912750000,RH_EXTIMU,2.29421699811e-06,1.53184450626e-05,-0.703290334384,0.710902739706,0.0,0.0,0.0,0.0,0.0,0.0,0.0,0.0,0.0,1.3681109972e-09,-6.88399752662e-09,-7.21527374875e-05,0.0,0.0,0.0,0.0,0.0,0.0,0.0,0.0,0.0,-0.000245617227321,-0.000179260069057,9.8099970186,0.0,0.0,0.0,0.0,0.0,0.0,0.0,0.0,0.0
117915250000,11120,117915250000,RH_EXTIMU,2.2943531705e-06,1.53183193664e-05,-0.703290398501,0.710902676276,0.0,0.0,0.0,0.0,0.0,0.0,0.0,0.0,0.0,1.49067136159e-07,5.78841071652e-09,-7.21520554986e-05,0.0,0.0,0.0,0.0,0.0,0.0,0.0,0.0,0.0,-0.000245044336547,-0.000182469486928,9.81000417563,0.0,0.0,0.0,0.0,0.0,0.0,0.0,0.0,0.0
117917750000,11121,117917750000,RH_EXTIMU,2.2943312631e-06,1.53183068237e-05,-0.703290462616,0.710902612847,0.0,0.0,0.0,0.0,0.0,0.0,0.0,0.0,0.0,-4.50014401742e-09,-1.87995163783e-08,-7.21512374153e-05,0.0,0.0,0.0,0.0,0.0,0.0,0.0,0.0,0.0,-0.000245691520598,-0.000178766145237,9.81000834715,0.0,0.0,0.0,0.0,0.0,0.0,0.0,0.0,0.0
117920250000,11122,117920250000,RH_EXTIMU,2.29433251426e-06,1.53183856406e-05,-0.703290526731,0.710902549419,0.0,0.0,0.0,0.0,0.0,0.0,0.0,0.0,0.0,-4.27312668137e-08,4.61884903714e-08,-7.21505018464e-05,0.0,0.0,0.0,0.0,0.0,0.0,0.0,0.0,0.0,-0.000244474272161,-0.000178791389872,9.81000506184,0.0,0.0,0.0,0.0,0.0,0.0,0.0,0.0,0.0
117922750000,11123,117922750000,RH_EXTIMU,2.29438340581e-06,1.53183650263e-05,-0.703290590846,0.710902485991,0.0,0.0,0.0,0.0,0.0,0.0,0.0,0.0,0.0,4.14435740743e-08,1.75690012982e-08,-7.21497643765e-05,0.0,0.0,0.0,0.0,0.0,0.0,0.0,0.0,0.0,-0.000245179737269,-0.000180409699523,9.81000577403,0.0,0.0,0.0,0.0,0.0,0.0,0.0,0.0,0.0
117926500000,11124,117925250000,RH_EXTIMU,2.29420480503e-06,1.53184063003e-05,-0.70329065496,0.710902422564,0.0,0.0,0.0,0.0,0.0,0.0,0.0,0.0,0.0,-1.23894194024e-07,-7.63535399714e-08,-7.21491804472e-05,0.0,0.0,0.0,0.0,0.0,0.0,0.0,0.0,0.0,-0.000246497012585,-0.000177008695411,9.80996950736,0.0,0.0,0.0,0.0,0.0,0.0,0.0,0.0,0.0
117927750000,11125,117927750000,RH_EXTIMU,2.2944291238e-06,1.53182289498e-05,-0.703290719073,0.710902359137,0.0,0.0,0.0,0.0,0.0,0.0,0.0,0.0,0.0,2.28260309748e-07,2.60054786683e-08,-7.21485600015e-05,0.0,0.0,0.0,0.0,0.0,0.0,0.0,0.0,0.0,-0.000244791117847,-0.000183519759132,9.81000039953,0.0,0.0,0.0,0.0,0.0,0.0,0.0,0.0,0.0
117930250000,11126,117930250000,RH_EXTIMU,2.29456070467e-06,1.53182530912e-05,-0.703290783185,0.710902295711,0.0,0.0,0.0,0.0,0.0,0.0,0.0,0.0,0.0,6.21522549129e-08,8.84210301812e-08,-7.2147751644e-05,0.0,0.0,0.0,0.0,0.0,0.0,0.0,0.0,0.0,-0.000243852531168,-0.000180016919264,9.81001333144,0.0,0.0,0.0,0.0,0.0,0.0,0.0,0.0,0.0
117932750000,11127,117932750000,RH_EXTIMU,2.29431967544e-06,1.53183222486e-05,-0.703290847297,0.710902232285,0.0,0.0,0.0,0.0,0.0,0.0,0.0,0.0,0.0,-1.75086705629e-07,-9.56200179694e-08,-7.21469529981e-05,0.0,0.0,0.0,0.0,0.0,0.0,0.0,0.0,0.0,-0.000247275199491,-0.000176145473723,9.80999474039,0.0,0.0,0.0,0.0,0.0,0.0,0.0,0.0,0.0
117935250000,11128,117935250000,RH_EXTIMU,2.29440937657e-06,1.53181998972e-05,-0.703290911408,0.710902168861,0.0,0.0,0.0,0.0,0.0,0.0,0.0,0.0,0.0,1.20755944298e-07,-1.84555310997e-08,-7.21462475188e-05,0.0,0.0,0.0,0.0,0.0,0.0,0.0,0.0,0.0,-0.000245400806271,-0.000181936345996,9.81000467535,0.0,0.0,0.0,0.0,0.0,0.0,0.0,0.0,0.0
117937750000,11129,117937750000,RH_EXTIMU,2.29436909093e-06,1.53181554056e-05,-0.703290975519,0.710902105436,0.0,0.0,0.0,0.0,0.0,0.0,0.0,0.0,0.0,3.02317338339e-09,-4.73098011689e-08,-7.21455129095e-05,0.0,0.0,0.0,0.0,0.0,0.0,0.0,0.0,0.0,-0.000245992317878,-0.000179262093885,9.80999842626,0.0,0.0,0.0,0.0,0.0,0.0,0.0,0.0,0.0
117940250000,11130,117940250000,RH_EXTIMU,2.29437377465e-06,1.5318132894e-05,-0.703291039629,0.710902042013,0.0,0.0,0.0,0.0,0.0,0.0,0.0,0.0,0.0,1.62315722049e-08,-9.50810329743e-09,-7.21448137131e-05,0.0,0.0,0.0,0.0,0.0,0.0,0.0,0.0,0.0,-0.000245353748295,-0.000179655494027,9.80999737692,0.0,0.0,0.0,0.0,0.0,0.0,0.0,0.0,0.0
117942750000,11131,117942750000,RH_EXTIMU,2.29442410713e-06,1.53180828491e-05,-0.703291103738,0.71090197859,0.0,0.0,0.0,0.0,0.0,0.0,0.0,0.0,0.0,5.7684126442e-08,5.16629073019e-10,-7.21441333636e-05,0.0,0.0,0.0,0.0,0.0,0.0,0.0,0.0,0.0,-0.000245253499565,-0.000180441821452,9.80999696906,0.0,0.0,0.0,0.0,0.0,0.0,0.0,0.0,0.0
117945250000,11132,117945250000,RH_EXTIMU,2.29449498249e-06,1.53181308138e-05,-0.703291167846,0.710901915168,0.0,0.0,0.0,0.0,0.0,0.0,0.0,0.0,0.0,1.42238122146e-08,6.78149387639e-08,-7.21434120757e-05,0.0,0.0,0.0,0.0,0.0,0.0,0.0,0.0,0.0,-0.0002440680045,-0.000179432803297,9.81000557869,0.0,0.0,0.0,0.0,0.0,0.0,0.0,0.0,0.0
117950250000,11133,117947750000,RH_EXTIMU,2.29443659611e-06,1.53181433149e-05,-0.703291231954,0.710901851746,0.0,0.0,0.0,0.0,0.0,0.0,0.0,0.0,0.0,-3.93370569492e-08,-2.50809626356e-08,-7.21427477903e-05,0.0,0.0,0.0,0.0,0.0,0.0,0.0,0.0,0.0,-0.00024598606336,-0.000178794836883,9.80998606516,0.0,0.0,0.0,0.0,0.0,0.0,0.0,0.0,0.0
117950250000,11134,117950250000,RH_EXTIMU,2.29451989816e-06,1.53180412625e-05,-0.703291296062,0.710901788325,0.0,0.0,0.0,0.0,0.0,0.0,0.0,0.0,0.0,1.05695690891e-07,-1.05113526324e-08,-7.21420160606e-05,0.0,0.0,0.0,0.0,0.0,0.0,0.0,0.0,0.0,-0.000245512957839,-0.000181131501575,9.81000448162,0.0,0.0,0.0,0.0,0.0,0.0,0.0,0.0,0.0
117952750000,11135,117952750000,RH_EXTIMU,2.29452616437e-06,1.53180299509e-05,-0.703291360169,0.710901724905,0.0,0.0,0.0,0.0,0.0,0.0,0.0,0.0,0.0,1.08300273081e-08,-2.24807237174e-09,-7.21412979535e-05,0.0,0.0,0.0,0.0,0.0,0.0,0.0,0.0,0.0,-0.000245217353355,-0.000179529803524,9.80999875337,0.0,0.0,0.0,0.0,0.0,0.0,0.0,0.0,0.0
117955250000,11136,117955250000,RH_EXTIMU,2.29456191799e-06,1.53180276648e-05,-0.703291424275,0.710901661485,0.0,0.0,0.0,0.0,0.0,0.0,0.0,0.0,0.0,2.25220707437e-08,1.9475521828e-08,-7.21405611531e-05,0.0,0.0,0.0,0.0,0.0,0.0,0.0,0.0,0.0,-0.00024499357425,-0.000179714071188,9.81000483327,0.0,0.0,0.0,0.0,0.0,0.0,0.0,0.0,0.0
117957750000,11137,117957750000,RH_EXTIMU,2.29450678974e-06,1.53180162433e-05,-0.70329148838,0.710901598066,0.0,0.0,0.0,0.0,0.0,0.0,0.0,0.0,0.0,-2.40245027533e-08,-3.68531515094e-08,-7.2139773708e-05,0.0,0.0,0.0,0.0,0.0,0.0,0.0,0.0,0.0,-0.000246065338548,-0.000178947436708,9.8100037468,0.0,0.0,0.0,0.0,0.0,0.0,0.0,0.0,0.0
117960250000,11138,117960250000,RH_EXTIMU,2.29454110508e-06,1.53179932928e-05,-0.703291552485,0.710901534647,0.0,0.0,0.0,0.0,0.0,0.0,0.0,0.0,0.0,3.33305641514e-08,6.91399423605e-09,-7.21390818704e-05,0.0,0.0,0.0,0.0,0.0,0.0,0.0,0.0,0.0,-0.000244997922495,-0.000180144171537,9.81000021635,0.0,0.0,0.0,0.0,0.0,0.0,0.0,0.0,0.0
117962750000,11139,117962750000,RH_EXTIMU,2.2945599764e-06,1.53179904013e-05,-0.703291616589,0.710901471229,0.0,0.0,0.0,0.0,0.0,0.0,0.0,0.0,0.0,1.32613578165e-08,9.63263566091e-09,-7.21384489064e-05,0.0,0.0,0.0,0.0,0.0,0.0,0.0,0.0,0.0,-0.000245037057529,-0.000179652255868,9.80998890925,0.0,0.0,0.0,0.0,0.0,0.0,0.0,0.0,0.0
117965250000,11140,117965250000,RH_EXTIMU,2.29476396381e-06,1.53178906141e-05,-0.703291680692,0.710901407812,0.0,0.0,0.0,0.0,0.0,0.0,0.0,0.0,0.0,1.73057519201e-07,5.86784837545e-08,-7.21377540944e-05,0.0,0.0,0.0,0.0,0.0,0.0,0.0,0.0,0.0,-0.000244314314458,-0.000182595470489,9.81000894169,0.0,0.0,0.0,0.0,0.0,0.0,0.0,0.0,0.0
117967750000,11141,117967750000,RH_EXTIMU,2.29458851795e-06,1.53179588095e-05,-0.703291744795,0.710901344395,0.0,0.0,0.0,0.0,0.0,0.0,0.0,0.0,0.0,-1.37246831623e-07,-5.92680635913e-08,-7.21369385449e-05,0.0,0.0,0.0,0.0,0.0,0.0,0.0,0.0,0.0,-0.000246655155014,-0.000176350795034,9.80999536948,0.0,0.0,0.0,0.0,0.0,0.0,0.0,0.0,0.0
117970250000,11142,117970250000,RH_EXTIMU,2.29457988502e-06,1.53179808714e-05,-0.703291808897,0.710901280979,0.0,0.0,0.0,0.0,0.0,0.0,0.0,0.0,0.0,-1.64205169058e-08,8.34931302744e-09,-7.21362904981e-05,0.0,0.0,0.0,0.0,0.0,0.0,0.0,0.0,0.0,-0.000244928119295,-0.000179123446168,9.80999339681,0.0,0.0,0.0,0.0,0.0,0.0,0.0,0.0,0.0
117972750000,11143,117972750000,RH_EXTIMU,2.29487254989e-06,1.53179011831e-05,-0.703291872999,0.710901217564,0.0,0.0,0.0,0.0,0.0,0.0,0.0,0.0,0.0,2.12181903804e-07,1.20002088873e-07,-7.21356470307e-05,0.0,0.0,0.0,0.0,0.0,0.0,0.0,0.0,0.0,-0.00024294471992,-0.000183896397151,9.81001080849,0.0,0.0,0.0,0.0,0.0,0.0,0.0,0.0,0.0
117975250000,11144,117975250000,RH_EXTIMU,2.29470655891e-06,1.53179740384e-05,-0.7032919371,0.710901154149,0.0,0.0,0.0,0.0,0.0,0.0,0.0,0.0,0.0,-1.34491494367e-07,-5.12982867263e-08,-7.21347489318e-05,0.0,0.0,0.0,0.0,0.0,0.0,0.0,0.0,0.0,-0.000247387977689,-0.000175771425055,9.8100018062,0.0,0.0,0.0,0.0,0.0,0.0,0.0,0.0,0.0
117977750000,11145,117977750000,RH_EXTIMU,2.29474459421e-06,1.53179363488e-05,-0.7032920012,0.710901090735,0.0,0.0,0.0,0.0,0.0,0.0,0.0,0.0,0.0,4.37388541048e-08,6.24478350098e-10,-7.21340481274e-05,0.0,0.0,0.0,0.0,0.0,0.0,0.0,0.0,0.0,-0.000244292799577,-0.000181157166198,9.8100100892,0.0,0.0,0.0,0.0,0.0,0.0,0.0,0.0,0.0
117980250000,11146,117980250000,RH_EXTIMU,2.29475249471e-06,1.53179650765e-05,-0.7032920653,0.710901027321,0.0,0.0,0.0,0.0,0.0,0.0,0.0,0.0,0.0,-1.07680644751e-08,2.14425323898e-08,-7.21333083103e-05,0.0,0.0,0.0,0.0,0.0,0.0,0.0,0.0,0.0,-0.000245356689708,-0.000178900479343,9.80999906106,0.0,0.0,0.0,0.0,0.0,0.0,0.0,0.0,0.0
117982750000,11147,117982750000,RH_EXTIMU,2.29475599279e-06,1.53179545147e-05,-0.703292129399,0.710900963908,0.0,0.0,0.0,0.0,0.0,0.0,0.0,0.0,0.0,8.83374506784e-09,-3.37915677452e-09,-7.21326432379e-05,0.0,0.0,0.0,0.0,0.0,0.0,0.0,0.0,0.0,-0.000245451278688,-0.000179489694006,9.80999178746,0.0,0.0,0.0,0.0,0.0,0.0,0.0,0.0,0.0
117985250000,11148,117985250000,RH_EXTIMU,2.29492038147e-06,1.53178730901e-05,-0.703292193497,0.710900900496,0.0,0.0,0.0,0.0,0.0,0.0,0.0,0.0,0.0,1.40205384598e-07,4.68421482061e-08,-7.21319344338e-05,0.0,0.0,0.0,0.0,0.0,0.0,0.0,0.0,0.0,-0.00024447977043,-0.000181965865006,9.81000892619,0.0,0.0,0.0,0.0,0.0,0.0,0.0,0.0,0.0
117987750000,11149,117987750000,RH_EXTIMU,2.29472278314e-06,1.53178623356e-05,-0.703292257595,0.710900837085,0.0,0.0,0.0,0.0,0.0,0.0,0.0,0.0,0.0,-1.05425544851e-07,-1.16632396966e-07,-7.21311187582e-05,0.0,0.0,0.0,0.0,0.0,0.0,0.0,0.0,0.0,-0.000247493566079,-0.000177246084925,9.8099961299,0.0,0.0,0.0,0.0,0.0,0.0,0.0,0.0,0.0
117990250000,11150,117990250000,RH_EXTIMU,2.29471291297e-06,1.53178238356e-05,-0.703292321692,0.710900773674,0.0,0.0,0.0,0.0,0.0,0.0,0.0,0.0,0.0,1.69499258989e-08,-2.67896608166e-08,-7.21304292352e-05,0.0,0.0,0.0,0.0,0.0,0.0,0.0,0.0,0.0,-0.000245299268502,-0.00017981566964,9.809998558,0.0,0.0,0.0,0.0,0.0,0.0,0.0,0.0,0.0
117992750000,11151,117992750000,RH_EXTIMU,2.29487490078e-06,1.53177743856e-05,-0.703292385788,0.710900710263,0.0,0.0,0.0,0.0,0.0,0.0,0.0,0.0,0.0,1.20849877791e-07,6.3676002744e-08,-7.21297231453e-05,0.0,0.0,0.0,0.0,0.0,0.0,0.0,0.0,0.0,-0.000243973748896,-0.000181830880042,9.81001112392,0.0,0.0,0.0,0.0,0.0,0.0,0.0,0.0,0.0
117995250000,11152,117995250000,RH_EXTIMU,2.29470271854e-06,1.53178921731e-05,-0.703292449884,0.710900646854,0.0,0.0,0.0,0.0,0.0,0.0,0.0,0.0,0.0,-1.63292963512e-07,-2.92280333964e-08,-7.21288893694e-05,0.0,0.0,0.0,0.0,0.0,0.0,0.0,0.0,0.0,-0.000246538263906,-0.000175678977443,9.80999563973,0.0,0.0,0.0,0.0,0.0,0.0,0.0,0.0,0.0
117997750000,11153,117997750000,RH_EXTIMU,2.29479577892e-06,1.5317776804e-05,-0.703292513979,0.710900583445,0.0,0.0,0.0,0.0,0.0,0.0,0.0,0.0,0.0,1.1873777786e-07,-1.25944895054e-08,-7.21283315069e-05,0.0,0.0,0.0,0.0,0.0,0.0,0.0,0.0,0.0,-0.000245066689004,-0.000182291407342,9.80999207723,0.0,0.0,0.0,0.0,0.0,0.0,0.0,0.0,0.0
118000250000,11154,118000250000,RH_EXTIMU,2.29470991182e-06,1.53177367941e-05,-0.703292578073,0.710900520036,0.0,0.0,0.0,0.0,0.0,0.0,0.0,0.0,0.0,-2.54215914612e-08,-7.04068569309e-08,-7.21275955105e-05,0.0,0.0,0.0,0.0,0.0,0.0,0.0,0.0,0.0,-0.00024654861863,-0.000178374003025,9.80999064678,0.0,0.0,0.0,0.0,0.0,0.0,0.0,0.0,0.0
118002750000,11155,118002750000,RH_EXTIMU,2.2948727564e-06,1.53176947204e-05,-0.703292642167,0.710900456628,0.0,0.0,0.0,0.0,0.0,0.0,0.0,0.0,0.0,1.17186961571e-07,6.83530747235e-08,-7.21268891277e-05,0.0,0.0,0.0,0.0,0.0,0.0,0.0,0.0,0.0,-0.000243925612119,-0.000181520462694,9.81000906816,0.0,0.0,0.0,0.0,0.0,0.0,0.0,0.0,0.0
118005250000,11156,118005250000,RH_EXTIMU,2.29480205256e-06,1.53177109545e-05,-0.70329270626,0.710900393221,0.0,0.0,0.0,0.0,0.0,0.0,0.0,0.0,0.0,-4.8442768903e-08,-2.98883780686e-08,-7.21261265037e-05,0.0,0.0,0.0,0.0,0.0,0.0,0.0,0.0,0.0,-0.000246271617064,-0.000178291519161,9.80999716458,0.0,0.0,0.0,0.0,0.0,0.0,0.0,0.0,0.0
118007750000,11157,118007750000,RH_EXTIMU,2.2948404439e-06,1.53176537834e-05,-0.703292770353,0.710900329814,0.0,0.0,0.0,0.0,0.0,0.0,0.0,0.0,0.0,5.49021542833e-08,-1.02547559566e-08,-7.21254773706e-05,0.0,0.0,0.0,0.0,0.0,0.0,0.0,0.0,0.0,-0.000244924939374,-0.00018060466832,9.80999428621,0.0,0.0,0.0,0.0,0.0,0.0,0.0,0.0,0.0
118010250000,11158,118010250000,RH_EXTIMU,2.29495114122e-06,1.53176236779e-05,-0.703292834444,0.710900266408,0.0,0.0,0.0,0.0,0.0,0.0,0.0,0.0,0.0,8.07959773286e-08,4.58198222257e-08,-7.212484162e-05,0.0,0.0,0.0,0.0,0.0,0.0,0.0,0.0,0.0,-0.00024481014205,-0.000180667825335,9.80999390266,0.0,0.0,0.0,0.0,0.0,0.0,0.0,0.0,0.0
118012750000,11159,118012750000,RH_EXTIMU,2.29500992391e-06,1.53175423162e-05,-0.703292898536,0.710900203003,0.0,0.0,0.0,0.0,0.0,0.0,0.0,0.0,0.0,8.01095496325e-08,-1.25395546367e-08,-7.21240971674e-05,0.0,0.0,0.0,0.0,0.0,0.0,0.0,0.0,0.0,-0.000245515656616,-0.00018076863324,9.81000375961,0.0,0.0,0.0,0.0,0.0,0.0,0.0,0.0,0.0
118015250000,11160,118015250000,RH_EXTIMU,2.29496472284e-06,1.53175735559e-05,-0.703292962626,0.710900139598,0.0,0.0,0.0,0.0,0.0,0.0,0.0,0.0,0.0,-4.23815085437e-08,-7.00572964288e-09,-7.21232346707e-05,0.0,0.0,0.0,0.0,0.0,0.0,0.0,0.0,0.0,-0.000245490282352,-0.000178289855974,9.81001472363,0.0,0.0,0.0,0.0,0.0,0.0,0.0,0.0,0.0
118017750000,11161,118017750000,RH_EXTIMU,2.29481227567e-06,1.53176557041e-05,-0.703293026716,0.710900076194,0.0,0.0,0.0,0.0,0.0,0.0,0.0,0.0,0.0,-1.32017392431e-07,-3.83934091443e-08,-7.21225440758e-05,0.0,0.0,0.0,0.0,0.0,0.0,0.0,0.0,0.0,-0.000245823151737,-0.0001772444407,9.80999029849,0.0,0.0,0.0,0.0,0.0,0.0,0.0,0.0,0.0
118020250000,11162,118020250000,RH_EXTIMU,2.29505289223e-06,1.53176334366e-05,-0.703293090806,0.71090001279,0.0,0.0,0.0,0.0,0.0,0.0,0.0,0.0,0.0,1.50273679607e-07,1.23374492494e-07,-7.21219215234e-05,0.0,0.0,0.0,0.0,0.0,0.0,0.0,0.0,0.0,-0.000243080902751,-0.000182263773304,9.8100042213,0.0,0.0,0.0,0.0,0.0,0.0,0.0,0.0,0.0
118022750000,11163,118022750000,RH_EXTIMU,2.2949684849e-06,1.53176358508e-05,-0.703293154894,0.710899949387,0.0,0.0,0.0,0.0,0.0,0.0,0.0,0.0,0.0,-4.84606848508e-08,-4.54582002935e-08,-7.21211664071e-05,0.0,0.0,0.0,0.0,0.0,0.0,0.0,0.0,0.0,-0.0002465428001,-0.000178229191035,9.8099932519,0.0,0.0,0.0,0.0,0.0,0.0,0.0,0.0,0.0
118025250000,11164,118025250000,RH_EXTIMU,2.2950193336e-06,1.53175568799e-05,-0.703293218982,0.710899885985,0.0,0.0,0.0,0.0,0.0,0.0,0.0,0.0,0.0,7.42521981142e-08,-1.56438481482e-08,-7.21204438871e-05,0.0,0.0,0.0,0.0,0.0,0.0,0.0,0.0,0.0,-0.000245375855196,-0.000180873394636,9.81000468018,0.0,0.0,0.0,0.0,0.0,0.0,0.0,0.0,0.0
118027750000,11165,118027750000,RH_EXTIMU,2.29506380793e-06,1.53175325644e-05,-0.70329328307,0.710899822584,0.0,0.0,0.0,0.0,0.0,0.0,0.0,0.0,0.0,3.98759173412e-08,1.18533396239e-08,-7.21196443822e-05,0.0,0.0,0.0,0.0,0.0,0.0,0.0,0.0,0.0,-0.000244940439218,-0.000180079158255,9.81001256123,0.0,0.0,0.0,0.0,0.0,0.0,0.0,0.0,0.0
118030250000,11166,118030250000,RH_EXTIMU,2.29487577296e-06,1.53175929927e-05,-0.703293347156,0.710899759183,0.0,0.0,0.0,0.0,0.0,0.0,0.0,0.0,0.0,-1.40036564543e-07,-7.07689400556e-08,-7.21190270456e-05,0.0,0.0,0.0,0.0,0.0,0.0,0.0,0.0,0.0,-0.000246607838819,-0.000176757339901,9.80997395283,0.0,0.0,0.0,0.0,0.0,0.0,0.0,0.0,0.0
118032750000,11167,118032750000,RH_EXTIMU,2.29498295959e-06,1.53174114095e-05,-0.703293411242,0.710899695782,0.0,0.0,0.0,0.0,0.0,0.0,0.0,0.0,0.0,1.64025882922e-07,-4.23037852573e-08,-7.2118377418e-05,0.0,0.0,0.0,0.0,0.0,0.0,0.0,0.0,0.0,-0.000246030759473,-0.000182246166926,9.8099945412,0.0,0.0,0.0,0.0,0.0,0.0,0.0,0.0,0.0
118035250000,11168,118035250000,RH_EXTIMU,2.29511026078e-06,1.53173478217e-05,-0.703293475328,0.710899632382,0.0,0.0,0.0,0.0,0.0,0.0,0.0,0.0,0.0,1.09077120621e-07,3.61196448822e-08,-7.21176282619e-05,0.0,0.0,0.0,0.0,0.0,0.0,0.0,0.0,0.0,-0.000244474101917,-0.000181055228124,9.81000934319,0.0,0.0,0.0,0.0,0.0,0.0,0.0,0.0,0.0
118037750000,11169,118037750000,RH_EXTIMU,2.29513783342e-06,1.53173738748e-05,-0.703293539413,0.710899568983,0.0,0.0,0.0,0.0,0.0,0.0,0.0,0.0,0.0,1.92442598814e-09,3.09894571349e-08,-7.21168684544e-05,0.0,0.0,0.0,0.0,0.0,0.0,0.0,0.0,0.0,-0.000244790041385,-0.000179498931566,9.81000673781,0.0,0.0,0.0,0.0,0.0,0.0,0.0,0.0,0.0
118040250000,11170,118040250000,RH_EXTIMU,2.29519068294e-06,1.53174070777e-05,-0.703293603497,0.710899505585,0.0,0.0,0.0,0.0,0.0,0.0,0.0,0.0,0.0,1.22771396327e-08,4.92773309288e-08,-7.21161440503e-05,0.0,0.0,0.0,0.0,0.0,0.0,0.0,0.0,0.0,-0.000244459632514,-0.000179624486301,9.81000397547,0.0,0.0,0.0,0.0,0.0,0.0,0.0,0.0,0.0
118040250000,11171,118042750000,RH_EXTIMU,2.29515879296e-06,1.53174529688e-05,-0.70329366758,0.710899442187,0.0,0.0,0.0,0.0,0.0,0.0,0.0,0.0,0.0,-4.30547139138e-08,8.8159657784e-09,-7.21154273389e-05,0.0,0.0,0.0,0.0,0.0,0.0,0.0,0.0,0.0,-0.000245714026909,-0.000178361505674,9.80999680709,0.0,0.0,0.0,0.0,0.0,0.0,0.0,0.0,0.0
118040250000,11172,118045250000,RH_EXTIMU,2.29523033615e-06,1.53173704695e-05,-0.703293731663,0.710899378789,0.0,0.0,0.0,0.0,0.0,0.0,0.0,0.0,0.0,8.80066536826e-08,-6.00704295366e-09,-7.21146712631e-05,0.0,0.0,0.0,0.0,0.0,0.0,0.0,0.0,0.0,-0.000245005149329,-0.000181476813612,9.81001147265,0.0,0.0,0.0,0.0,0.0,0.0,0.0,0.0,0.0
118040250000,11173,118047750000,RH_EXTIMU,2.29509301758e-06,1.53174281956e-05,-0.703293795745,0.710899315393,0.0,0.0,0.0,0.0,0.0,0.0,0.0,0.0,0.0,-1.09672826373e-07,-4.37710589092e-08,-7.21139059111e-05,0.0,0.0,0.0,0.0,0.0,0.0,0.0,0.0,0.0,-0.000246205483512,-0.000176997696647,9.80999408067,0.0,0.0,0.0,0.0,0.0,0.0,0.0,0.0,0.0
118040250000,11174,118050250000,RH_EXTIMU,2.29514866856e-06,1.53173859557e-05,-0.703293859827,0.710899251997,0.0,0.0,0.0,0.0,0.0,0.0,0.0,0.0,0.0,5.63171216641e-08,7.94769853547e-09,-7.21132360473e-05,0.0,0.0,0.0,0.0,0.0,0.0,0.0,0.0,0.0,-0.000245079316151,-0.000180565813704,9.80999981617,0.0,0.0,0.0,0.0,0.0,0.0,0.0,0.0,0.0
118052750000,11175,118052750000,RH_EXTIMU,2.29514522694e-06,1.5317357738e-05,-0.703293923908,0.710899188602,0.0,0.0,0.0,0.0,0.0,0.0,0.0,0.0,0.0,1.48205826273e-08,-1.732514071e-08,-7.211248038e-05,0.0,0.0,0.0,0.0,0.0,0.0,0.0,0.0,0.0,-0.000245656989698,-0.000179480457234,9.8100012566,0.0,0.0,0.0,0.0,0.0,0.0,0.0,0.0,0.0
118055250000,11176,118055250000,RH_EXTIMU,2.29514375644e-06,1.53173421959e-05,-0.703293987988,0.710899125207,0.0,0.0,0.0,0.0,0.0,0.0,0.0,0.0,0.0,8.8098541508e-09,-9.0072603374e-09,-7.21117579523e-05,0.0,0.0,0.0,0.0,0.0,0.0,0.0,0.0,0.0,-0.000245380688407,-0.000179527590557,9.81000060117,0.0,0.0,0.0,0.0,0.0,0.0,0.0,0.0,0.0
118057750000,11177,118057750000,RH_EXTIMU,2.29515942901e-06,1.53173259898e-05,-0.703294052068,0.710899061813,0.0,0.0,0.0,0.0,0.0,0.0,0.0,0.0,0.0,1.89330486572e-08,2.60362656333e-10,-7.21110430045e-05,0.0,0.0,0.0,0.0,0.0,0.0,0.0,0.0,0.0,-0.000245278189195,-0.000179707112884,9.80999998931,0.0,0.0,0.0,0.0,0.0,0.0,0.0,0.0,0.0
118060250000,11178,118060250000,RH_EXTIMU,2.29517928844e-06,1.5317306654e-05,-0.703294116147,0.710898998419,0.0,0.0,0.0,0.0,0.0,0.0,0.0,0.0,0.0,2.30750502845e-08,8.36146795156e-10,-7.21103282311e-05,0.0,0.0,0.0,0.0,0.0,0.0,0.0,0.0,0.0,-0.000245295186887,-0.000179759119289,9.80999978535,0.0,0.0,0.0,0.0,0.0,0.0,0.0,0.0,0.0
118062750000,11179,118062750000,RH_EXTIMU,2.29519878806e-06,1.53172868563e-05,-0.703294180225,0.710898935026,0.0,0.0,0.0,0.0,0.0,0.0,0.0,0.0,0.0,2.3130317767e-08,3.70963379457e-10,-7.21096123454e-05,0.0,0.0,0.0,0.0,0.0,0.0,0.0,0.0,0.0,-0.000245302320899,-0.000179750126366,9.80999980036,0.0,0.0,0.0,0.0,0.0,0.0,0.0,0.0,0.0
118066500000,11180,118065250000,RH_EXTIMU,2.29521739346e-06,1.53172678279e-05,-0.703294244303,0.710898871634,0.0,0.0,0.0,0.0,0.0,0.0,0.0,0.0,0.0,2.21888984091e-08,3.05379324332e-10,-7.21088962368e-05,0.0,0.0,0.0,0.0,0.0,0.0,0.0,0.0,0.0,-0.00024530217568,-0.000179731853147,9.80999985802,0.0,0.0,0.0,0.0,0.0,0.0,0.0,0.0,0.0
118067750000,11181,118067750000,RH_EXTIMU,2.29525604965e-06,1.53172569055e-05,-0.70329430838,0.710898808243,0.0,0.0,0.0,0.0,0.0,0.0,0.0,0.0,0.0,2.90313896388e-08,1.61967292548e-08,-7.2108147517e-05,0.0,0.0,0.0,0.0,0.0,0.0,0.0,0.0,0.0,-0.00024504564988,-0.000179837194819,9.81000579726,0.0,0.0,0.0,0.0,0.0,0.0,0.0,0.0,0.0
118070250000,11182,118070250000,RH_EXTIMU,2.29529013601e-06,1.53172042188e-05,-0.703294372456,0.710898744852,0.0,0.0,0.0,0.0,0.0,0.0,0.0,0.0,0.0,4.99305864697e-08,-1.01266490193e-08,-7.21075113715e-05,0.0,0.0,0.0,0.0,0.0,0.0,0.0,0.0,0.0,-0.000245104237657,-0.000180772333058,9.80999282896,0.0,0.0,0.0,0.0,0.0,0.0,0.0,0.0,0.0
118072750000,11183,118072750000,RH_EXTIMU,2.29535234281e-06,1.53172057889e-05,-0.703294436532,0.710898681461,0.0,0.0,0.0,0.0,0.0,0.0,0.0,0.0,0.0,3.53963294564e-08,3.65518414923e-08,-7.21067372813e-05,0.0,0.0,0.0,0.0,0.0,0.0,0.0,0.0,0.0,-0.000245094660916,-0.000179359947686,9.81000558277,0.0,0.0,0.0,0.0,0.0,0.0,0.0,0.0,0.0
118075250000,11184,118075250000,RH_EXTIMU,2.29536758646e-06,1.53172398496e-05,-0.703294500607,0.710898618072,0.0,0.0,0.0,0.0,0.0,0.0,0.0,0.0,0.0,-9.59281351456e-09,2.86066545124e-08,-7.21060337595e-05,0.0,0.0,0.0,0.0,0.0,0.0,0.0,0.0,0.0,-0.00024475803752,-0.000179323358023,9.80999864387,0.0,0.0,0.0,0.0,0.0,0.0,0.0,0.0,0.0
118077750000,11185,118077750000,RH_EXTIMU,2.2955383739e-06,1.53171956956e-05,-0.703294564681,0.710898554682,0.0,0.0,0.0,0.0,0.0,0.0,0.0,0.0,0.0,1.228741988e-07,7.16389976973e-08,-7.21053896203e-05,0.0,0.0,0.0,0.0,0.0,0.0,0.0,0.0,0.0,-0.000244124300974,-0.000181758381979,9.81000362467,0.0,0.0,0.0,0.0,0.0,0.0,0.0,0.0,0.0
118080250000,11186,118080250000,RH_EXTIMU,2.29532883035e-06,1.53172863788e-05,-0.703294628755,0.710898491294,0.0,0.0,0.0,0.0,0.0,0.0,0.0,0.0,0.0,-1.6929139515e-07,-6.56643653835e-08,-7.21045772239e-05,0.0,0.0,0.0,0.0,0.0,0.0,0.0,0.0,0.0,-0.00024725621286,-0.000175456709363,9.80998911769,0.0,0.0,0.0,0.0,0.0,0.0,0.0,0.0,0.0
118080250000,11187,118082750000,RH_EXTIMU,2.29541267421e-06,1.53171439419e-05,-0.703294692829,0.710898427906,0.0,0.0,0.0,0.0,0.0,0.0,0.0,0.0,0.0,1.28725158506e-07,-3.31738639653e-08,-7.2103951642e-05,0.0,0.0,0.0,0.0,0.0,0.0,0.0,0.0,0.0,-0.000245218083916,-0.000182365548537,9.80999936879,0.0,0.0,0.0,0.0,0.0,0.0,0.0,0.0,0.0
118085250000,11188,118085250000,RH_EXTIMU,2.29543098756e-06,1.53170942121e-05,-0.703294756901,0.710898364519,0.0,0.0,0.0,0.0,0.0,0.0,0.0,0.0,0.0,3.92964313222e-08,-1.73194485263e-08,-7.21032137121e-05,0.0,0.0,0.0,0.0,0.0,0.0,0.0,0.0,0.0,-0.000245520941168,-0.000179799090243,9.80999945376,0.0,0.0,0.0,0.0,0.0,0.0,0.0,0.0,0.0
118087750000,11189,118087750000,RH_EXTIMU,2.2953762389e-06,1.53170929754e-05,-0.703294820973,0.710898301132,0.0,0.0,0.0,0.0,0.0,0.0,0.0,0.0,0.0,-2.95392585995e-08,-3.0847822823e-08,-7.21024930052e-05,0.0,0.0,0.0,0.0,0.0,0.0,0.0,0.0,0.0,-0.000245772414654,-0.000178711439336,9.80999635995,0.0,0.0,0.0,0.0,0.0,0.0,0.0,0.0,0.0
118090250000,11190,118090250000,RH_EXTIMU,2.29543427136e-06,1.53170214686e-05,-0.703294885044,0.710898237746,0.0,0.0,0.0,0.0,0.0,0.0,0.0,0.0,0.0,7.41379407535e-08,-7.35705764149e-09,-7.21017797137e-05,0.0,0.0,0.0,0.0,0.0,0.0,0.0,0.0,0.0,-0.00024532167667,-0.000180896150825,9.81000221238,0.0,0.0,0.0,0.0,0.0,0.0,0.0,0.0,0.0
118092750000,11191,118092750000,RH_EXTIMU,2.29534889124e-06,1.53170207812e-05,-0.703294949115,0.710898174361,0.0,0.0,0.0,0.0,0.0,0.0,0.0,0.0,0.0,-4.72689847979e-08,-4.77698444232e-08,-7.21010457894e-05,0.0,0.0,0.0,0.0,0.0,0.0,0.0,0.0,0.0,-0.000246329518893,-0.000177968702191,9.80999307379,0.0,0.0,0.0,0.0,0.0,0.0,0.0,0.0,0.0
118092750000,11192,118095250000,RH_EXTIMU,2.2954739403e-06,1.53169573867e-05,-0.703295013185,0.710898110976,0.0,0.0,0.0,0.0,0.0,0.0,0.0,0.0,0.0,1.07687194587e-07,3.49625441982e-08,-7.2100410719e-05,0.0,0.0,0.0,0.0,0.0,0.0,0.0,0.0,0.0,-0.000244151319976,-0.000181839236718,9.81000084708,0.0,0.0,0.0,0.0,0.0,0.0,0.0,0.0,0.0
118096500000,11193,118097750000,RH_EXTIMU,2.295516623e-06,1.53169446613e-05,-0.703295077254,0.710898047592,0.0,0.0,0.0,0.0,0.0,0.0,0.0,0.0,0.0,3.23357309636e-08,1.7436637262e-08,-7.20996399136e-05,0.0,0.0,0.0,0.0,0.0,0.0,0.0,0.0,0.0,-0.000245422337511,-0.00017954715839,9.81000387263,0.0,0.0,0.0,0.0,0.0,0.0,0.0,0.0,0.0
118096500000,11194,118100250000,RH_EXTIMU,2.2954732079e-06,1.53169417133e-05,-0.703295141323,0.710897984208,0.0,0.0,0.0,0.0,0.0,0.0,0.0,0.0,0.0,-2.21308543231e-08,-2.54444610262e-08,-7.20988661846e-05,0.0,0.0,0.0,0.0,0.0,0.0,0.0,0.0,0.0,-0.000245748426563,-0.00017893664418,9.8100047751,0.0,0.0,0.0,0.0,0.0,0.0,0.0,0.0,0.0
118102750000,11195,118102750000,RH_EXTIMU,2.29538945314e-06,1.53169694303e-05,-0.703295205391,0.710897920826,0.0,0.0,0.0,0.0,0.0,0.0,0.0,0.0,0.0,-6.23260436561e-08,-3.07012329187e-08,-7.20981245457e-05,0.0,0.0,0.0,0.0,0.0,0.0,0.0,0.0,0.0,-0.000245806903094,-0.000178160564857,9.80999722081,0.0,0.0,0.0,0.0,0.0,0.0,0.0,0.0,0.0
118105250000,11196,118105250000,RH_EXTIMU,2.29544144208e-06,1.53168974305e-05,-0.703295269458,0.710897857443,0.0,0.0,0.0,0.0,0.0,0.0,0.0,0.0,0.0,7.09782405812e-08,-1.10377759489e-08,-7.20974955398e-05,0.0,0.0,0.0,0.0,0.0,0.0,0.0,0.0,0.0,-0.000245374121313,-0.000180913348319,9.80999188097,0.0,0.0,0.0,0.0,0.0,0.0,0.0,0.0,0.0
118107750000,11197,118107750000,RH_EXTIMU,2.29554492211e-06,1.53168140643e-05,-0.703295333525,0.710897794062,0.0,0.0,0.0,0.0,0.0,0.0,0.0,0.0,0.0,1.06657251708e-07,1.14687461558e-08,-7.20968436491e-05,0.0,0.0,0.0,0.0,0.0,0.0,0.0,0.0,0.0,-0.000244873809324,-0.000181103128422,9.80999512481,0.0,0.0,0.0,0.0,0.0,0.0,0.0,0.0,0.0
118110250000,11198,118110250000,RH_EXTIMU,2.29565155442e-06,1.5316839988e-05,-0.703295397592,0.71089773068,0.0,0.0,0.0,0.0,0.0,0.0,0.0,0.0,0.0,4.69595358076e-08,7.53974857666e-08,-7.209612231e-05,0.0,0.0,0.0,0.0,0.0,0.0,0.0,0.0,0.0,-0.000244062207555,-0.000180025294643,9.81000768095,0.0,0.0,0.0,0.0,0.0,0.0,0.0,0.0,0.0
118112750000,11199,118112750000,RH_EXTIMU,2.2956704661e-06,1.53169207425e-05,-0.703295461657,0.7108976673,0.0,0.0,0.0,0.0,0.0,0.0,0.0,0.0,0.0,-3.37785693463e-08,5.7225914668e-08,-7.20952683505e-05,0.0,0.0,0.0,0.0,0.0,0.0,0.0,0.0,0.0,-0.000244541465689,-0.000178815452228,9.81001728413,0.0,0.0,0.0,0.0,0.0,0.0,0.0,0.0,0.0
118115250000,11200,118115250000,RH_EXTIMU,2.29546719499e-06,1.53169523258e-05,-0.703295525722,0.71089760392,0.0,0.0,0.0,0.0,0.0,0.0,0.0,0.0,0.0,-1.32472445552e-07,-9.57467658182e-08,-7.20945459646e-05,0.0,0.0,0.0,0.0,0.0,0.0,0.0,0.0,0.0,-0.000247267015004,-0.000177026788555,9.80998573346,0.0,0.0,0.0,0.0,0.0,0.0,0.0,0.0,0.0
118117750000,11201,118117750000,RH_EXTIMU,2.29563009387e-06,1.53168069563e-05,-0.703295589786,0.710897540541,0.0,0.0,0.0,0.0,0.0,0.0,0.0,0.0,0.0,1.75335116397e-07,9.63755171533e-09,-7.20939011787e-05,0.0,0.0,0.0,0.0,0.0,0.0,0.0,0.0,0.0,-0.000244683309633,-0.000182842922134,9.81000458195,0.0,0.0,0.0,0.0,0.0,0.0,0.0,0.0,0.0
118120250000,11202,118120250000,RH_EXTIMU,2.29554774263e-06,1.53168300759e-05,-0.70329565385,0.710897477163,0.0,0.0,0.0,0.0,0.0,0.0,0.0,0.0,0.0,-5.89411696264e-08,-3.2526336294e-08,-7.20930678808e-05,0.0,0.0,0.0,0.0,0.0,0.0,0.0,0.0,0.0,-0.000246243879713,-0.000177643351221,9.81000289837,0.0,0.0,0.0,0.0,0.0,0.0,0.0,0.0,0.0
118122750000,11203,118122750000,RH_EXTIMU,2.29545358789e-06,1.53168498868e-05,-0.703295717912,0.710897413785,0.0,0.0,0.0,0.0,0.0,0.0,0.0,0.0,0.0,-6.37924711963e-08,-4.10490975785e-08,-7.20924170713e-05,0.0,0.0,0.0,0.0,0.0,0.0,0.0,0.0,0.0,-0.000245775213651,-0.000178230673598,9.80998710083,0.0,0.0,0.0,0.0,0.0,0.0,0.0,0.0,0.0
118125250000,11204,118125250000,RH_EXTIMU,2.29578371256e-06,1.53166984899e-05,-0.703295781975,0.710897350408,0.0,0.0,0.0,0.0,0.0,0.0,0.0,0.0,0.0,2.73830626066e-07,1.00297022009e-07,-7.20918273719e-05,0.0,0.0,0.0,0.0,0.0,0.0,0.0,0.0,0.0,-0.000243041520616,-0.000185137313605,9.81000914788,0.0,0.0,0.0,0.0,0.0,0.0,0.0,0.0,0.0
118127750000,11205,118127750000,RH_EXTIMU,2.29560273549e-06,1.53167995745e-05,-0.703295846036,0.710897287031,0.0,0.0,0.0,0.0,0.0,0.0,0.0,0.0,0.0,-1.58897390766e-07,-4.36768155547e-08,-7.20909214473e-05,0.0,0.0,0.0,0.0,0.0,0.0,0.0,0.0,0.0,-0.000247079751899,-0.000175108887501,9.80999782559,0.0,0.0,0.0,0.0,0.0,0.0,0.0,0.0,0.0
118130250000,11206,118130250000,RH_EXTIMU,2.2956382615e-06,1.53167348366e-05,-0.703295910097,0.710897223655,0.0,0.0,0.0,0.0,0.0,0.0,0.0,0.0,0.0,5.75295239329e-08,-1.61704139009e-08,-7.20903602709e-05,0.0,0.0,0.0,0.0,0.0,0.0,0.0,0.0,0.0,-0.000245022524097,-0.000181185683112,9.80999050196,0.0,0.0,0.0,0.0,0.0,0.0,0.0,0.0,0.0
118130250000,11207,118132750000,RH_EXTIMU,2.29576425607e-06,1.5316679455e-05,-0.703295974158,0.71089716028,0.0,0.0,0.0,0.0,0.0,0.0,0.0,0.0,0.0,1.03716398572e-07,4.005160669e-08,-7.20895827219e-05,0.0,0.0,0.0,0.0,0.0,0.0,0.0,0.0,0.0,-0.00024468982538,-0.000180889868269,9.81001176601,0.0,0.0,0.0,0.0,0.0,0.0,0.0,0.0,0.0
118135250000,11208,118135250000,RH_EXTIMU,2.29569509041e-06,1.53167044353e-05,-0.703296038217,0.710897096905,0.0,0.0,0.0,0.0,0.0,0.0,0.0,0.0,0.0,-5.24892302827e-08,-2.40495061725e-08,-7.20888997992e-05,0.0,0.0,0.0,0.0,0.0,0.0,0.0,0.0,0.0,-0.000245732026344,-0.000178490268038,9.80998935256,0.0,0.0,0.0,0.0,0.0,0.0,0.0,0.0,0.0
118137750000,11209,118137750000,RH_EXTIMU,2.29589011429e-06,1.53166002857e-05,-0.703296102277,0.710897033531,0.0,0.0,0.0,0.0,0.0,0.0,0.0,0.0,0.0,1.70413310581e-07,5.1154751572e-08,-7.20882086302e-05,0.0,0.0,0.0,0.0,0.0,0.0,0.0,0.0,0.0,-0.000244076591358,-0.000182753552568,9.81001071824,0.0,0.0,0.0,0.0,0.0,0.0,0.0,0.0,0.0
118140250000,11210,118140250000,RH_EXTIMU,2.29579942433e-06,1.53167174515e-05,-0.703296166335,0.710896970157,0.0,0.0,0.0,0.0,0.0,0.0,0.0,0.0,0.0,-1.16597487329e-07,1.62676417032e-08,-7.20873151097e-05,0.0,0.0,0.0,0.0,0.0,0.0,0.0,0.0,0.0,-0.000245614338167,-0.000176475157353,9.8100126023,0.0,0.0,0.0,0.0,0.0,0.0,0.0,0.0,0.0
118142750000,11211,118142750000,RH_EXTIMU,2.29571836944e-06,1.53167990202e-05,-0.703296230393,0.710896906785,0.0,0.0,0.0,0.0,0.0,0.0,0.0,0.0,0.0,-9.10896026573e-08,1.44397435842e-09,-7.20865177213e-05,0.0,0.0,0.0,0.0,0.0,0.0,0.0,0.0,0.0,-0.000245208168795,-0.000178228435544,9.81001139819,0.0,0.0,0.0,0.0,0.0,0.0,0.0,0.0,0.0
118146500000,11212,118145250000,RH_EXTIMU,2.29567663966e-06,1.53168200257e-05,-0.703296294449,0.710896843412,0.0,0.0,0.0,0.0,0.0,0.0,0.0,0.0,0.0,-3.46496257236e-08,-1.08736433083e-08,-7.20857793907e-05,0.0,0.0,0.0,0.0,0.0,0.0,0.0,0.0,0.0,-0.000245512293085,-0.000178915159277,9.8099986001,0.0,0.0,0.0,0.0,0.0,0.0,0.0,0.0,0.0
118147750000,11213,118147750000,RH_EXTIMU,2.29583128639e-06,1.53167170281e-05,-0.703296358506,0.710896780041,0.0,0.0,0.0,0.0,0.0,0.0,0.0,0.0,0.0,1.46801864932e-07,2.90923217905e-08,-7.20851839459e-05,0.0,0.0,0.0,0.0,0.0,0.0,0.0,0.0,0.0,-0.000244693362198,-0.000182285597004,9.8099963476,0.0,0.0,0.0,0.0,0.0,0.0,0.0,0.0,0.0
118150250000,11214,118150250000,RH_EXTIMU,2.29572244565e-06,1.53167531459e-05,-0.703296422562,0.71089671667,0.0,0.0,0.0,0.0,0.0,0.0,0.0,0.0,0.0,-8.13195112951e-08,-4.00381977953e-08,-7.20844355202e-05,0.0,0.0,0.0,0.0,0.0,0.0,0.0,0.0,0.0,-0.000246401124769,-0.000177023092602,9.80998997506,0.0,0.0,0.0,0.0,0.0,0.0,0.0,0.0,0.0
118152750000,11215,118152750000,RH_EXTIMU,2.29577278202e-06,1.53166454946e-05,-0.703296486617,0.7108966533,0.0,0.0,0.0,0.0,0.0,0.0,0.0,0.0,0.0,9.00970197005e-08,-3.22431510008e-08,-7.20837706736e-05,0.0,0.0,0.0,0.0,0.0,0.0,0.0,0.0,0.0,-0.000245544995389,-0.000181461301604,9.80999748064,0.0,0.0,0.0,0.0,0.0,0.0,0.0,0.0,0.0
118152750000,11216,118155250000,RH_EXTIMU,2.29578066453e-06,1.53165954393e-05,-0.703296550671,0.71089658993,0.0,0.0,0.0,0.0,0.0,0.0,0.0,0.0,0.0,3.35471638624e-08,-2.33734784591e-08,-7.20830823868e-05,0.0,0.0,0.0,0.0,0.0,0.0,0.0,0.0,0.0,-0.000245568726252,-0.000179661114086,9.80999222166,0.0,0.0,0.0,0.0,0.0,0.0,0.0,0.0,0.0
118157750000,11217,118157750000,RH_EXTIMU,2.29593741223e-06,1.53165133658e-05,-0.703296614725,0.710896526561,0.0,0.0,0.0,0.0,0.0,0.0,0.0,0.0,0.0,1.36223998231e-07,4.21743014039e-08,-7.20824571434e-05,0.0,0.0,0.0,0.0,0.0,0.0,0.0,0.0,0.0,-0.000244397808301,-0.000181986692327,9.80999859276,0.0,0.0,0.0,0.0,0.0,0.0,0.0,0.0,0.0
118160250000,11218,118160250000,RH_EXTIMU,2.29597391489e-06,1.53165040218e-05,-0.703296678779,0.710896463192,0.0,0.0,0.0,0.0,0.0,0.0,0.0,0.0,0.0,2.6918246874e-08,1.58824597921e-08,-7.20816790886e-05,0.0,0.0,0.0,0.0,0.0,0.0,0.0,0.0,0.0,-0.000245246632602,-0.000179455071648,9.81000469251,0.0,0.0,0.0,0.0,0.0,0.0,0.0,0.0,0.0
118162750000,11219,118162750000,RH_EXTIMU,2.29588754308e-06,1.53165387407e-05,-0.703296742831,0.710896399824,0.0,0.0,0.0,0.0,0.0,0.0,0.0,0.0,0.0,-6.77540676761e-08,-2.81919346859e-08,-7.20809178924e-05,0.0,0.0,0.0,0.0,0.0,0.0,0.0,0.0,0.0,-0.000246040111909,-0.000177935451458,9.80999928258,0.0,0.0,0.0,0.0,0.0,0.0,0.0,0.0,0.0
118165250000,11220,118165250000,RH_EXTIMU,2.29591306465e-06,1.53164975755e-05,-0.703296806883,0.710896336457,0.0,0.0,0.0,0.0,0.0,0.0,0.0,0.0,0.0,3.85768799141e-08,-8.39316957653e-09,-7.20802116901e-05,0.0,0.0,0.0,0.0,0.0,0.0,0.0,0.0,0.0,-0.000245045231325,-0.000180385875488,9.81000284063,0.0,0.0,0.0,0.0,0.0,0.0,0.0,0.0,0.0
118167750000,11221,118167750000,RH_EXTIMU,2.29594419494e-06,1.53165268436e-05,-0.703296870934,0.710896273091,0.0,0.0,0.0,0.0,0.0,0.0,0.0,0.0,0.0,2.13824200444e-09,3.48191159607e-08,-7.20794743852e-05,0.0,0.0,0.0,0.0,0.0,0.0,0.0,0.0,0.0,-0.000244771822934,-0.000179231180711,9.81000310777,0.0,0.0,0.0,0.0,0.0,0.0,0.0,0.0,0.0
118170250000,11222,118170250000,RH_EXTIMU,2.29593229682e-06,1.53165274372e-05,-0.703296934985,0.710896209725,0.0,0.0,0.0,0.0,0.0,0.0,0.0,0.0,0.0,-6.19946801878e-09,-5.69791267423e-09,-7.20787586472e-05,0.0,0.0,0.0,0.0,0.0,0.0,0.0,0.0,0.0,-0.000245711174995,-0.000179228291908,9.8099972411,0.0,0.0,0.0,0.0,0.0,0.0,0.0,0.0,0.0
118172750000,11223,118172750000,RH_EXTIMU,2.29603215107e-06,1.53164637577e-05,-0.703296999035,0.710896146359,0.0,0.0,0.0,0.0,0.0,0.0,0.0,0.0,0.0,9.3518528514e-08,2.0624883608e-08,-7.20779727202e-05,0.0,0.0,0.0,0.0,0.0,0.0,0.0,0.0,0.0,-0.000244843113992,-0.000181073578323,9.81001500486,0.0,0.0,0.0,0.0,0.0,0.0,0.0,0.0,0.0
118175250000,11224,118175250000,RH_EXTIMU,2.29586261303e-06,1.53165799528e-05,-0.703297063084,0.710896082995,0.0,0.0,0.0,0.0,0.0,0.0,0.0,0.0,0.0,-1.60893732956e-07,-2.86475404974e-08,-7.20772376939e-05,0.0,0.0,0.0,0.0,0.0,0.0,0.0,0.0,0.0,-0.000245905086496,-0.00017607085898,9.80998977579,0.0,0.0,0.0,0.0,0.0,0.0,0.0,0.0,0.0
118177750000,11225,118177750000,RH_EXTIMU,2.29602386253e-06,1.5316507759e-05,-0.703297127133,0.710896019631,0.0,0.0,0.0,0.0,0.0,0.0,0.0,0.0,0.0,1.33225448783e-07,5.03259851455e-08,-7.20767035311e-05,0.0,0.0,0.0,0.0,0.0,0.0,0.0,0.0,0.0,-0.000244157494815,-0.000182429928317,9.80999186052,0.0,0.0,0.0,0.0,0.0,0.0,0.0,0.0,0.0
118180250000,11226,118180250000,RH_EXTIMU,2.29607348132e-06,1.53164047812e-05,-0.703297191181,0.710895956267,0.0,0.0,0.0,0.0,0.0,0.0,0.0,0.0,0.0,8.70594496101e-08,-2.99890747672e-08,-7.20758769797e-05,0.0,0.0,0.0,0.0,0.0,0.0,0.0,0.0,0.0,-0.00024619012487,-0.000180453208165,9.81000678586,0.0,0.0,0.0,0.0,0.0,0.0,0.0,0.0,0.0
118182750000,11227,118182750000,RH_EXTIMU,2.29597293064e-06,1.53164228941e-05,-0.703297255229,0.710895892904,0.0,0.0,0.0,0.0,0.0,0.0,0.0,0.0,0.0,-6.64747082117e-08,-4.56137385069e-08,-7.20751842521e-05,0.0,0.0,0.0,0.0,0.0,0.0,0.0,0.0,0.0,-0.00024578531632,-0.000178096793879,9.80999257552,0.0,0.0,0.0,0.0,0.0,0.0,0.0,0.0,0.0
118185250000,11228,118185250000,RH_EXTIMU,2.29606664129e-06,1.53164022819e-05,-0.703297319275,0.710895829542,0.0,0.0,0.0,0.0,0.0,0.0,0.0,0.0,0.0,6.57931757454e-08,4.16613992476e-08,-7.20744756614e-05,0.0,0.0,0.0,0.0,0.0,0.0,0.0,0.0,0.0,-0.000244546296473,-0.000180525933757,9.81000499318,0.0,0.0,0.0,0.0,0.0,0.0,0.0,0.0,0.0
118187750000,11229,118187750000,RH_EXTIMU,2.29610442674e-06,1.53163438382e-05,-0.703297383321,0.71089576618,0.0,0.0,0.0,0.0,0.0,0.0,0.0,0.0,0.0,5.5272985478e-08,-1.13196302517e-08,-7.20736790574e-05,0.0,0.0,0.0,0.0,0.0,0.0,0.0,0.0,0.0,-0.000245725612831,-0.00018036643885,9.81000861777,0.0,0.0,0.0,0.0,0.0,0.0,0.0,0.0,0.0
118189000000,11230,118190250000,RH_EXTIMU,2.29596222889e-06,1.53163704426e-05,-0.703297447367,0.71089570282,0.0,0.0,0.0,0.0,0.0,0.0,0.0,0.0,0.0,-9.49377477086e-08,-6.42168479541e-08,-7.20729687392e-05,0.0,0.0,0.0,0.0,0.0,0.0,0.0,0.0,0.0,-0.00024621793105,-0.000177567839035,9.80999154602,0.0,0.0,0.0,0.0,0.0,0.0,0.0,0.0,0.0
118192750000,11231,118192750000,RH_EXTIMU,2.29611607596e-06,1.53163535861e-05,-0.703297511412,0.710895639459,0.0,0.0,0.0,0.0,0.0,0.0,0.0,0.0,0.0,9.78806071502e-08,7.76323535434e-08,-7.2072393824e-05,0.0,0.0,0.0,0.0,0.0,0.0,0.0,0.0,0.0,-0.000243723057841,-0.000181276661949,9.80999240216,0.0,0.0,0.0,0.0,0.0,0.0,0.0,0.0,0.0
118195250000,11232,118195250000,RH_EXTIMU,2.29622992554e-06,1.53163104778e-05,-0.703297575456,0.710895576099,0.0,0.0,0.0,0.0,0.0,0.0,0.0,0.0,0.0,8.9903608662e-08,4.019842956e-08,-7.20716169808e-05,0.0,0.0,0.0,0.0,0.0,0.0,0.0,0.0,0.0,-0.00024501680359,-0.000180653466573,9.81000916177,0.0,0.0,0.0,0.0,0.0,0.0,0.0,0.0,0.0
118197750000,11233,118197750000,RH_EXTIMU,2.29610608417e-06,1.53163001479e-05,-0.7032976395,0.71089551274,0.0,0.0,0.0,0.0,0.0,0.0,0.0,0.0,0.0,-6.37175229113e-08,-7.48939457131e-08,-7.20707325593e-05,0.0,0.0,0.0,0.0,0.0,0.0,0.0,0.0,0.0,-0.000246766467911,-0.000178086072873,9.8100120346,0.0,0.0,0.0,0.0,0.0,0.0,0.0,0.0,0.0
118200250000,11234,118200250000,RH_EXTIMU,2.29603804663e-06,1.53163556509e-05,-0.703297703542,0.710895449382,0.0,0.0,0.0,0.0,0.0,0.0,0.0,0.0,0.0,-6.90210675214e-08,-6.05634813807e-09,-7.20700774632e-05,0.0,0.0,0.0,0.0,0.0,0.0,0.0,0.0,0.0,-0.000244958408266,-0.000178393015492,9.8099932227,0.0,0.0,0.0,0.0,0.0,0.0,0.0,0.0,0.0
118202750000,11235,118202750000,RH_EXTIMU,2.29603354822e-06,1.53163831996e-05,-0.703297767585,0.710895386024,0.0,0.0,0.0,0.0,0.0,0.0,0.0,0.0,0.0,-1.71571700125e-08,1.37951072831e-08,-7.20693922443e-05,0.0,0.0,0.0,0.0,0.0,0.0,0.0,0.0,0.0,-0.000245120589189,-0.000178908215002,9.809995919,0.0,0.0,0.0,0.0,0.0,0.0,0.0,0.0,0.0
118205250000,11236,118205250000,RH_EXTIMU,2.29613754557e-06,1.53163190366e-05,-0.703297831626,0.710895322667,0.0,0.0,0.0,0.0,0.0,0.0,0.0,0.0,0.0,9.61466155257e-08,2.26810419176e-08,-7.20687736802e-05,0.0,0.0,0.0,0.0,0.0,0.0,0.0,0.0,0.0,-0.000244976304966,-0.000181250084773,9.80998932484,0.0,0.0,0.0,0.0,0.0,0.0,0.0,0.0,0.0
118207750000,11237,118207750000,RH_EXTIMU,2.29616001043e-06,1.53161602593e-05,-0.703297895667,0.71089525931,0.0,0.0,0.0,0.0,0.0,0.0,0.0,0.0,0.0,1.03011446234e-07,-7.70010240907e-08,-7.20681567723e-05,0.0,0.0,0.0,0.0,0.0,0.0,0.0,0.0,0.0,-0.000246730805528,-0.00018097712229,9.80998147845,0.0,0.0,0.0,0.0,0.0,0.0,0.0,0.0,0.0
118210250000,11238,118210250000,RH_EXTIMU,2.29633084116e-06,1.53160203535e-05,-0.703297959708,0.710895195954,0.0,0.0,0.0,0.0,0.0,0.0,0.0,0.0,0.0,1.7677162124e-07,1.7207891677e-08,-7.20674879722e-05,0.0,0.0,0.0,0.0,0.0,0.0,0.0,0.0,0.0,-0.000244542260518,-0.000182354293094,9.81000287747,0.0,0.0,0.0,0.0,0.0,0.0,0.0,0.0,0.0
118212750000,11239,118212750000,RH_EXTIMU,2.29631224199e-06,1.53160817511e-05,-0.703298023748,0.710895132599,0.0,0.0,0.0,0.0,0.0,0.0,0.0,0.0,0.0,-4.42212455369e-08,2.51118498801e-08,-7.20666676543e-05,0.0,0.0,0.0,0.0,0.0,0.0,0.0,0.0,0.0,-0.000245159701527,-0.000178006723626,9.81000772604,0.0,0.0,0.0,0.0,0.0,0.0,0.0,0.0,0.0
118215250000,11240,118215250000,RH_EXTIMU,2.29626936764e-06,1.53161353165e-05,-0.703298087787,0.710895069244,0.0,0.0,0.0,0.0,0.0,0.0,0.0,0.0,0.0,-5.36202259789e-08,6.99937178809e-09,-7.20659146207e-05,0.0,0.0,0.0,0.0,0.0,0.0,0.0,0.0,0.0,-0.000245238276395,-0.000178537729762,9.81000399978,0.0,0.0,0.0,0.0,0.0,0.0,0.0,0.0,0.0
118217750000,11241,118217750000,RH_EXTIMU,2.29626884338e-06,1.53161391437e-05,-0.703298151825,0.71089500589,0.0,0.0,0.0,0.0,0.0,0.0,0.0,0.0,0.0,-1.55048774945e-09,2.54029376065e-09,-7.20651928628e-05,0.0,0.0,0.0,0.0,0.0,0.0,0.0,0.0,0.0,-0.000245285411061,-0.000179436017773,9.81000099005,0.0,0.0,0.0,0.0,0.0,0.0,0.0,0.0,0.0
118220250000,11242,118220250000,RH_EXTIMU,2.29628628153e-06,1.53161200928e-05,-0.703298215863,0.710894942536,0.0,0.0,0.0,0.0,0.0,0.0,0.0,0.0,0.0,2.15371969176e-08,-3.64590714957e-10,-7.20644793399e-05,0.0,0.0,0.0,0.0,0.0,0.0,0.0,0.0,0.0,-0.000245316149774,-0.000179745505544,9.80999980907,0.0,0.0,0.0,0.0,0.0,0.0,0.0,0.0,0.0
118222750000,11243,118222750000,RH_EXTIMU,2.29630722062e-06,1.53160970507e-05,-0.703298279901,0.710894879183,0.0,0.0,0.0,0.0,0.0,0.0,0.0,0.0,0.0,2.57737819693e-08,-6.64635859697e-10,-7.2063765628e-05,0.0,0.0,0.0,0.0,0.0,0.0,0.0,0.0,0.0,-0.000245312697487,-0.000179772533305,9.80999964999,0.0,0.0,0.0,0.0,0.0,0.0,0.0,0.0,0.0
118227750000,11244,118225250000,RH_EXTIMU,2.29632704164e-06,1.53160757212e-05,-0.703298343937,0.710894815831,0.0,0.0,0.0,0.0,0.0,0.0,0.0,0.0,0.0,2.41743419953e-08,-3.19747138526e-10,-7.20630501351e-05,0.0,0.0,0.0,0.0,0.0,0.0,0.0,0.0,0.0,-0.000245307228101,-0.000179732807783,9.80999976693,0.0,0.0,0.0,0.0,0.0,0.0,0.0,0.0,0.0
118227750000,11245,118227750000,RH_EXTIMU,2.29634537205e-06,1.53160562234e-05,-0.703298407973,0.710894752479,0.0,0.0,0.0,0.0,0.0,0.0,0.0,0.0,0.0,2.22960302147e-08,-1.16719883086e-10,-7.20623336261e-05,0.0,0.0,0.0,0.0,0.0,0.0,0.0,0.0,0.0,-0.000245305267905,-0.000179700764115,9.80999987604,0.0,0.0,0.0,0.0,0.0,0.0,0.0,0.0,0.0
118230250000,11246,118230250000,RH_EXTIMU,2.29635491769e-06,1.53160162697e-05,-0.703298472008,0.710894689128,0.0,0.0,0.0,0.0,0.0,0.0,0.0,0.0,0.0,2.88092084478e-08,-1.66929272346e-08,-7.20615715893e-05,0.0,0.0,0.0,0.0,0.0,0.0,0.0,0.0,0.0,-0.00024567137569,-0.000179848493948,9.81000664659,0.0,0.0,0.0,0.0,0.0,0.0,0.0,0.0,0.0
118232750000,11247,118232750000,RH_EXTIMU,2.29628267165e-06,1.53160373382e-05,-0.703298536043,0.710894625778,0.0,0.0,0.0,0.0,0.0,0.0,0.0,0.0,0.0,-5.20403963882e-08,-2.80078913584e-08,-7.20607398773e-05,0.0,0.0,0.0,0.0,0.0,0.0,0.0,0.0,0.0,-0.000245591648637,-0.000178374549012,9.81000898594,0.0,0.0,0.0,0.0,0.0,0.0,0.0,0.0,0.0
118235250000,11248,118235250000,RH_EXTIMU,2.29629151623e-06,1.53160588797e-05,-0.703298600077,0.710894562429,0.0,0.0,0.0,0.0,0.0,0.0,0.0,0.0,0.0,-6.18905974388e-09,1.78858726275e-08,-7.20600368723e-05,0.0,0.0,0.0,0.0,0.0,0.0,0.0,0.0,0.0,-0.000244976819145,-0.000179382238518,9.81000180957,0.0,0.0,0.0,0.0,0.0,0.0,0.0,0.0,0.0
118237750000,11249,118237750000,RH_EXTIMU,2.29632280872e-06,1.53160443181e-05,-0.70329866411,0.710894499079,0.0,0.0,0.0,0.0,0.0,0.0,0.0,0.0,0.0,2.68904095665e-08,9.98354576452e-09,-7.20593319879e-05,0.0,0.0,0.0,0.0,0.0,0.0,0.0,0.0,0.0,-0.000245202435032,-0.000179874490478,9.8099994029,0.0,0.0,0.0,0.0,0.0,0.0,0.0,0.0,0.0
118240250000,11250,118240250000,RH_EXTIMU,2.29635170156e-06,1.53160157119e-05,-0.703298728142,0.710894435731,0.0,0.0,0.0,0.0,0.0,0.0,0.0,0.0,0.0,3.34277153432e-08,6.46017618605e-10,-7.20586224175e-05,0.0,0.0,0.0,0.0,0.0,0.0,0.0,0.0,0.0,-0.000245319725342,-0.000179902697073,9.80999920237,0.0,0.0,0.0,0.0,0.0,0.0,0.0,0.0,0.0
118242750000,11251,118242750000,RH_EXTIMU,2.29643172632e-06,1.53160434777e-05,-0.703298792174,0.710894372383,0.0,0.0,0.0,0.0,0.0,0.0,0.0,0.0,0.0,3.07901627201e-08,6.14744341978e-08,-7.20579635688e-05,0.0,0.0,0.0,0.0,0.0,0.0,0.0,0.0,0.0,-0.000244148594714,-0.0001798508387,9.80999772821,0.0,0.0,0.0,0.0,0.0,0.0,0.0,0.0,0.0
118245250000,11252,118245250000,RH_EXTIMU,2.2964936268e-06,1.5316040275e-05,-0.703298856206,0.710894309036,0.0,0.0,0.0,0.0,0.0,0.0,0.0,0.0,0.0,3.79066523053e-08,3.36647740225e-08,-7.20572578672e-05,0.0,0.0,0.0,0.0,0.0,0.0,0.0,0.0,0.0,-0.000244991148464,-0.000179950812288,9.80999894912,0.0,0.0,0.0,0.0,0.0,0.0,0.0,0.0,0.0
118247750000,11253,118247750000,RH_EXTIMU,2.29652522951e-06,1.53160160132e-05,-0.703298920236,0.710894245689,0.0,0.0,0.0,0.0,0.0,0.0,0.0,0.0,0.0,3.25245587693e-08,4.64136467497e-09,-7.20564894571e-05,0.0,0.0,0.0,0.0,0.0,0.0,0.0,0.0,0.0,-0.000245358316778,-0.000179823451296,9.810006677,0.0,0.0,0.0,0.0,0.0,0.0,0.0,0.0,0.0
118250250000,11254,118250250000,RH_EXTIMU,2.29649642392e-06,1.53160317806e-05,-0.703298984266,0.710894182344,0.0,0.0,0.0,0.0,0.0,0.0,0.0,0.0,0.0,-2.43526327158e-08,-6.58143769324e-09,-7.20557414875e-05,0.0,0.0,0.0,0.0,0.0,0.0,0.0,0.0,0.0,-0.000245389264528,-0.00017891763618,9.81000259427,0.0,0.0,0.0,0.0,0.0,0.0,0.0,0.0,0.0
118252750000,11255,118252750000,RH_EXTIMU,2.29650142525e-06,1.5316026333e-05,-0.703299048296,0.710894118998,0.0,0.0,0.0,0.0,0.0,0.0,0.0,0.0,0.0,6.81030682161e-09,3.74307809152e-10,-7.20550231362e-05,0.0,0.0,0.0,0.0,0.0,0.0,0.0,0.0,0.0,-0.000245286197813,-0.000179530244982,9.81000058692,0.0,0.0,0.0,0.0,0.0,0.0,0.0,0.0,0.0
118255250000,11256,118255250000,RH_EXTIMU,2.29642432566e-06,1.53160398557e-05,-0.703299112325,0.710894055654,0.0,0.0,0.0,0.0,0.0,0.0,0.0,0.0,0.0,-5.05552251638e-08,-3.50301540732e-08,-7.20543316074e-05,0.0,0.0,0.0,0.0,0.0,0.0,0.0,0.0,0.0,-0.00024608642516,-0.000178122507332,9.80998898301,0.0,0.0,0.0,0.0,0.0,0.0,0.0,0.0,0.0
118257750000,11257,118257750000,RH_EXTIMU,2.29651370932e-06,1.53159462179e-05,-0.703299176353,0.710893992309,0.0,0.0,0.0,0.0,0.0,0.0,0.0,0.0,0.0,1.04419034965e-07,-2.30394602462e-09,-7.2053738062e-05,0.0,0.0,0.0,0.0,0.0,0.0,0.0,0.0,0.0,-0.000245019893075,-0.000181514266954,9.80999045207,0.0,0.0,0.0,0.0,0.0,0.0,0.0,0.0,0.0
118260250000,11258,118260250000,RH_EXTIMU,2.29668075561e-06,1.53158542109e-05,-0.70329924038,0.710893928966,0.0,0.0,0.0,0.0,0.0,0.0,0.0,0.0,0.0,1.47669430944e-07,4.23195103653e-08,-7.2053021181e-05,0.0,0.0,0.0,0.0,0.0,0.0,0.0,0.0,0.0,-0.000244645362311,-0.00018175323915,9.8100045473,0.0,0.0,0.0,0.0,0.0,0.0,0.0,0.0,0.0
118260250000,11259,118262750000,RH_EXTIMU,2.29655858388e-06,1.53158573536e-05,-0.703299304407,0.710893865623,0.0,0.0,0.0,0.0,0.0,0.0,0.0,0.0,0.0,-7.03482631949e-08,-6.62928184554e-08,-7.20522502086e-05,0.0,0.0,0.0,0.0,0.0,0.0,0.0,0.0,0.0,-0.000246860033984,-0.000177606728252,9.8099949743,0.0,0.0,0.0,0.0,0.0,0.0,0.0,0.0,0.0
118265250000,11260,118265250000,RH_EXTIMU,2.29656804419e-06,1.53157541653e-05,-0.703299368434,0.710893802281,0.0,0.0,0.0,0.0,0.0,0.0,0.0,0.0,0.0,6.4338883351e-08,-5.27035067116e-08,-7.20515401611e-05,0.0,0.0,0.0,0.0,0.0,0.0,0.0,0.0,0.0,-0.000245603813851,-0.000180940622289,9.81000266615,0.0,0.0,0.0,0.0,0.0,0.0,0.0,0.0,0.0
118270250000,11261,118267750000,RH_EXTIMU,2.29654684811e-06,1.53157402492e-05,-0.703299432459,0.710893738939,0.0,0.0,0.0,0.0,0.0,0.0,0.0,0.0,0.0,-3.32390111754e-09,-1.91816034525e-08,-7.20507618358e-05,0.0,0.0,0.0,0.0,0.0,0.0,0.0,0.0,0.0,-0.000245606923027,-0.000178972660722,9.81000411652,0.0,0.0,0.0,0.0,0.0,0.0,0.0,0.0,0.0
118270250000,11262,118270250000,RH_EXTIMU,2.2964228453e-06,1.5315798617e-05,-0.703299496484,0.710893675598,0.0,0.0,0.0,0.0,0.0,0.0,0.0,0.0,0.0,-1.02461430951e-07,-3.59157941411e-08,-7.20500666191e-05,0.0,0.0,0.0,0.0,0.0,0.0,0.0,0.0,0.0,-0.000246014903042,-0.000177187518519,9.80998825822,0.0,0.0,0.0,0.0,0.0,0.0,0.0,0.0,0.0
118272750000,11263,118272750000,RH_EXTIMU,2.29653627508e-06,1.53157082852e-05,-0.703299560508,0.710893612258,0.0,0.0,0.0,0.0,0.0,0.0,0.0,0.0,0.0,1.16234290569e-07,1.31055141993e-08,-7.20495074235e-05,0.0,0.0,0.0,0.0,0.0,0.0,0.0,0.0,0.0,-0.000244748907209,-0.000181876889748,9.80998852841,0.0,0.0,0.0,0.0,0.0,0.0,0.0,0.0,0.0
118275250000,11264,118275250000,RH_EXTIMU,2.29662763877e-06,1.53156219445e-05,-0.703299624532,0.710893548918,0.0,0.0,0.0,0.0,0.0,0.0,0.0,0.0,0.0,1.01439432307e-07,2.96002562274e-09,-7.20488139651e-05,0.0,0.0,0.0,0.0,0.0,0.0,0.0,0.0,0.0,-0.000245346416571,-0.000180801272317,9.80999578129,0.0,0.0,0.0,0.0,0.0,0.0,0.0,0.0,0.0
118279000000,11265,118277750000,RH_EXTIMU,2.29665075829e-06,1.53155941454e-05,-0.703299688555,0.710893485579,0.0,0.0,0.0,0.0,0.0,0.0,0.0,0.0,0.0,2.96900730145e-08,-2.14333655874e-09,-7.20480896956e-05,0.0,0.0,0.0,0.0,0.0,0.0,0.0,0.0,0.0,-0.000245332434046,-0.000179645705846,9.80999975981,0.0,0.0,0.0,0.0,0.0,0.0,0.0,0.0,0.0
118280250000,11266,118280250000,RH_EXTIMU,2.29666469036e-06,1.53155846832e-05,-0.703299752578,0.71089342224,0.0,0.0,0.0,0.0,0.0,0.0,0.0,0.0,0.0,1.41479829023e-08,3.11587432716e-09,-7.20472872119e-05,0.0,0.0,0.0,0.0,0.0,0.0,0.0,0.0,0.0,-0.000245303553759,-0.000179473568891,9.81001137997,0.0,0.0,0.0,0.0,0.0,0.0,0.0,0.0,0.0
118282750000,11267,118282750000,RH_EXTIMU,2.29659949771e-06,1.53156288579e-05,-0.7032998166,0.710893358902,0.0,0.0,0.0,0.0,0.0,0.0,0.0,0.0,0.0,-6.10296317459e-08,-1.08987992275e-08,-7.20465134386e-05,0.0,0.0,0.0,0.0,0.0,0.0,0.0,0.0,0.0,-0.000245450082528,-0.00017832022622,9.81000469631,0.0,0.0,0.0,0.0,0.0,0.0,0.0,0.0,0.0
118285250000,11268,118285250000,RH_EXTIMU,2.29659343403e-06,1.5315634369e-05,-0.703299880621,0.710893295565,0.0,0.0,0.0,0.0,0.0,0.0,0.0,0.0,0.0,-5.64852441366e-09,3.8103384071e-10,-7.20457939969e-05,0.0,0.0,0.0,0.0,0.0,0.0,0.0,0.0,0.0,-0.000245265630354,-0.000179379674519,9.81000117256,0.0,0.0,0.0,0.0,0.0,0.0,0.0,0.0,0.0
118287750000,11269,118287750000,RH_EXTIMU,2.2966548071e-06,1.53155897606e-05,-0.703299944641,0.710893232228,0.0,0.0,0.0,0.0,0.0,0.0,0.0,0.0,0.0,6.09030317174e-08,9.81987570421e-09,-7.20450901279e-05,0.0,0.0,0.0,0.0,0.0,0.0,0.0,0.0,0.0,-0.000245087414206,-0.000180611947825,9.8100008703,0.0,0.0,0.0,0.0,0.0,0.0,0.0,0.0,0.0
118290250000,11270,118290250000,RH_EXTIMU,2.29670426584e-06,1.53155345192e-05,-0.703300008661,0.710893168892,0.0,0.0,0.0,0.0,0.0,0.0,0.0,0.0,0.0,6.01097124331e-08,-2.93074523711e-09,-7.20443879663e-05,0.0,0.0,0.0,0.0,0.0,0.0,0.0,0.0,0.0,-0.000245434307056,-0.000180271339319,9.8099986852,0.0,0.0,0.0,0.0,0.0,0.0,0.0,0.0,0.0
118292750000,11271,118292750000,RH_EXTIMU,2.29673284905e-06,1.53155052708e-05,-0.70330007268,0.710893105557,0.0,0.0,0.0,0.0,0.0,0.0,0.0,0.0,0.0,3.36127584357e-08,1.06464382156e-10,-7.20436801518e-05,0.0,0.0,0.0,0.0,0.0,0.0,0.0,0.0,0.0,-0.000245274678933,-0.000179840785567,9.80999924936,0.0,0.0,0.0,0.0,0.0,0.0,0.0,0.0,0.0
118295250000,11272,118295250000,RH_EXTIMU,2.29675358812e-06,1.53154860529e-05,-0.703300136699,0.710893042222,0.0,0.0,0.0,0.0,0.0,0.0,0.0,0.0,0.0,2.35080997034e-08,1.39753741529e-09,-7.20429638314e-05,0.0,0.0,0.0,0.0,0.0,0.0,0.0,0.0,0.0,-0.000245281967878,-0.000179689279532,9.80999981662,0.0,0.0,0.0,0.0,0.0,0.0,0.0,0.0,0.0
118297750000,11273,118297750000,RH_EXTIMU,2.29685019739e-06,1.53155164254e-05,-0.703300200717,0.710892978888,0.0,0.0,0.0,0.0,0.0,0.0,0.0,0.0,0.0,3.87550491352e-08,7.22878865755e-08,-7.20422418879e-05,0.0,0.0,0.0,0.0,0.0,0.0,0.0,0.0,0.0,-0.000244018769597,-0.000179977300016,9.81000723618,0.0,0.0,0.0,0.0,0.0,0.0,0.0,0.0,0.0
118300250000,11274,118300250000,RH_EXTIMU,2.29683557822e-06,1.53155466578e-05,-0.703300264734,0.710892915554,0.0,0.0,0.0,0.0,0.0,0.0,0.0,0.0,0.0,-2.44233431429e-08,9.62661297642e-09,-7.20414869223e-05,0.0,0.0,0.0,0.0,0.0,0.0,0.0,0.0,0.0,-0.000245468426459,-0.000178894965288,9.81000196081,0.0,0.0,0.0,0.0,0.0,0.0,0.0,0.0,0.0
118302750000,11275,118302750000,RH_EXTIMU,2.2969030706e-06,1.53155269109e-05,-0.70330032875,0.710892852222,0.0,0.0,0.0,0.0,0.0,0.0,0.0,0.0,0.0,5.03950178433e-08,2.7401933631e-08,-7.20407606341e-05,0.0,0.0,0.0,0.0,0.0,0.0,0.0,0.0,0.0,-0.000244534356412,-0.000180466862729,9.81000743082,0.0,0.0,0.0,0.0,0.0,0.0,0.0,0.0,0.0
118305250000,11276,118305250000,RH_EXTIMU,2.29675771302e-06,1.53156271678e-05,-0.703300392766,0.710892788889,0.0,0.0,0.0,0.0,0.0,0.0,0.0,0.0,0.0,-1.38174782364e-07,-2.41081444611e-08,-7.20399926944e-05,0.0,0.0,0.0,0.0,0.0,0.0,0.0,0.0,0.0,-0.000246402448752,-0.000176235354694,9.80999255601,0.0,0.0,0.0,0.0,0.0,0.0,0.0,0.0,0.0
118307750000,11277,118307750000,RH_EXTIMU,2.29671834007e-06,1.53155387909e-05,-0.703300456782,0.710892725558,0.0,0.0,0.0,0.0,0.0,0.0,0.0,0.0,0.0,2.8233158564e-08,-7.17556665236e-08,-7.20392473987e-05,0.0,0.0,0.0,0.0,0.0,0.0,0.0,0.0,0.0,-0.000246165774649,-0.000180251247923,9.81000546676,0.0,0.0,0.0,0.0,0.0,0.0,0.0,0.0,0.0
118310250000,11278,118310250000,RH_EXTIMU,2.29680074132e-06,1.53154708446e-05,-0.703300520796,0.710892662227,0.0,0.0,0.0,0.0,0.0,0.0,0.0,0.0,0.0,8.59927830339e-08,8.37858796919e-09,-7.20384849236e-05,0.0,0.0,0.0,0.0,0.0,0.0,0.0,0.0,0.0,-0.000244670136885,-0.00018129331168,9.81001133211,0.0,0.0,0.0,0.0,0.0,0.0,0.0,0.0,0.0
118312750000,11279,118312750000,RH_EXTIMU,2.29670493451e-06,1.53155229833e-05,-0.70330058481,0.710892598897,0.0,0.0,0.0,0.0,0.0,0.0,0.0,0.0,0.0,-8.29213244669e-08,-2.35944507043e-08,-7.20377561305e-05,0.0,0.0,0.0,0.0,0.0,0.0,0.0,0.0,0.0,-0.000246162193991,-0.000177129835432,9.8099907848,0.0,0.0,0.0,0.0,0.0,0.0,0.0,0.0,0.0
118315250000,11280,118315250000,RH_EXTIMU,2.29687400923e-06,1.53154517154e-05,-0.703300648823,0.710892535567,0.0,0.0,0.0,0.0,0.0,0.0,0.0,0.0,0.0,1.37154064108e-07,5.52555315258e-08,-7.20372143591e-05,0.0,0.0,0.0,0.0,0.0,0.0,0.0,0.0,0.0,-0.000243864438056,-0.000182450704185,9.80999348435,0.0,0.0,0.0,0.0,0.0,0.0,0.0,0.0,0.0
118317750000,11281,118317750000,RH_EXTIMU,2.29695463045e-06,1.53153930392e-05,-0.703300712836,0.710892472238,0.0,0.0,0.0,0.0,0.0,0.0,0.0,0.0,0.0,7.97647006491e-08,1.26490990275e-08,-7.20364633977e-05,0.0,0.0,0.0,0.0,0.0,0.0,0.0,0.0,0.0,-0.000245581418056,-0.000180323712323,9.81000038212,0.0,0.0,0.0,0.0,0.0,0.0,0.0,0.0,0.0
118320250000,11282,118320250000,RH_EXTIMU,2.29685844683e-06,1.53153925919e-05,-0.703300776848,0.710892408909,0.0,0.0,0.0,0.0,0.0,0.0,0.0,0.0,0.0,-5.35486417547e-08,-5.3712893316e-08,-7.20357322634e-05,0.0,0.0,0.0,0.0,0.0,0.0,0.0,0.0,0.0,-0.000246200190261,-0.000177967838184,9.80999268903,0.0,0.0,0.0,0.0,0.0,0.0,0.0,0.0,0.0
118322750000,11283,118322750000,RH_EXTIMU,2.29688282178e-06,1.5315366731e-05,-0.70330084086,0.710892345581,0.0,0.0,0.0,0.0,0.0,0.0,0.0,0.0,0.0,2.93133875491e-08,-3.34783837383e-10,-7.20350880136e-05,0.0,0.0,0.0,0.0,0.0,0.0,0.0,0.0,0.0,-0.000245046852145,-0.000180041502404,9.80999537531,0.0,0.0,0.0,0.0,0.0,0.0,0.0,0.0,0.0
118325250000,11284,118325250000,RH_EXTIMU,2.29707820781e-06,1.53152524499e-05,-0.70330090487,0.710892282254,0.0,0.0,0.0,0.0,0.0,0.0,0.0,0.0,0.0,1.76318629507e-07,4.55971118002e-08,-7.20343114906e-05,0.0,0.0,0.0,0.0,0.0,0.0,0.0,0.0,0.0,-0.000244325254463,-0.00018293660317,9.81001933449,0.0,0.0,0.0,0.0,0.0,0.0,0.0,0.0,0.0
118327750000,11285,118327750000,RH_EXTIMU,2.29691460341e-06,1.53153393463e-05,-0.70330096888,0.710892218928,0.0,0.0,0.0,0.0,0.0,0.0,0.0,0.0,0.0,-1.41034895238e-07,-4.19730587742e-08,-7.20333534887e-05,0.0,0.0,0.0,0.0,0.0,0.0,0.0,0.0,0.0,-0.000246537966141,-0.000176019968235,9.81001524606,0.0,0.0,0.0,0.0,0.0,0.0,0.0,0.0,0.0
118330250000,11286,118330250000,RH_EXTIMU,2.29683739991e-06,1.53154746992e-05,-0.70330103289,0.710892155602,0.0,0.0,0.0,0.0,0.0,0.0,0.0,0.0,0.0,-1.19161179442e-07,3.41975437642e-08,-7.20327627675e-05,0.0,0.0,0.0,0.0,0.0,0.0,0.0,0.0,0.0,-0.000244259095182,-0.000177722520258,9.80998922839,0.0,0.0,0.0,0.0,0.0,0.0,0.0,0.0,0.0
118332750000,11287,118332750000,RH_EXTIMU,2.29691839547e-06,1.53153750925e-05,-0.703301096899,0.710892092277,0.0,0.0,0.0,0.0,0.0,0.0,0.0,0.0,0.0,1.0300671805e-07,-1.04180376345e-08,-7.20320908954e-05,0.0,0.0,0.0,0.0,0.0,0.0,0.0,0.0,0.0,-0.000245852586944,-0.000181244554837,9.80999413298,0.0,0.0,0.0,0.0,0.0,0.0,0.0,0.0,0.0
118335250000,11288,118335250000,RH_EXTIMU,2.29702873492e-06,1.53152377358e-05,-0.703301160907,0.710892028952,0.0,0.0,0.0,0.0,0.0,0.0,0.0,0.0,0.0,1.4093464306e-07,-1.5376883093e-08,-7.20313370899e-05,0.0,0.0,0.0,0.0,0.0,0.0,0.0,0.0,0.0,-0.000245546782509,-0.000181716929093,9.81000708,0.0,0.0,0.0,0.0,0.0,0.0,0.0,0.0,0.0
118337750000,11289,118337750000,RH_EXTIMU,2.29690727289e-06,1.53152784803e-05,-0.703301224914,0.710891965628,0.0,0.0,0.0,0.0,0.0,0.0,0.0,0.0,0.0,-9.11009919477e-08,-4.45093614634e-08,-7.20307385772e-05,0.0,0.0,0.0,0.0,0.0,0.0,0.0,0.0,0.0,-0.000245758746656,-0.000177529960755,9.80997743535,0.0,0.0,0.0,0.0,0.0,0.0,0.0,0.0,0.0
118340250000,11290,118340250000,RH_EXTIMU,2.29716766168e-06,1.53151235397e-05,-0.703301288921,0.710891902304,0.0,0.0,0.0,0.0,0.0,0.0,0.0,0.0,0.0,2.36163130968e-07,5.90468435273e-08,-7.20301134822e-05,0.0,0.0,0.0,0.0,0.0,0.0,0.0,0.0,0.0,-0.000244181151556,-0.000183858327771,9.810001715,0.0,0.0,0.0,0.0,0.0,0.0,0.0,0.0,0.0
118342750000,11291,118342750000,RH_EXTIMU,2.29708672293e-06,1.53150976599e-05,-0.703301352928,0.710891838981,0.0,0.0,0.0,0.0,0.0,0.0,0.0,0.0,0.0,-3.05693499646e-08,-5.95994270243e-08,-7.20292134691e-05,0.0,0.0,0.0,0.0,0.0,0.0,0.0,0.0,0.0,-0.000246748695237,-0.000177925983794,9.81001101134,0.0,0.0,0.0,0.0,0.0,0.0,0.0,0.0,0.0
118345250000,11292,118345250000,RH_EXTIMU,2.29703764226e-06,1.5315151016e-05,-0.703301416933,0.710891775659,0.0,0.0,0.0,0.0,0.0,0.0,0.0,0.0,0.0,-5.70325821453e-08,3.38770914342e-09,-7.20284357387e-05,0.0,0.0,0.0,0.0,0.0,0.0,0.0,0.0,0.0,-0.000244808679495,-0.000178633669777,9.81001128872,0.0,0.0,0.0,0.0,0.0,0.0,0.0,0.0,0.0
118347750000,11293,118347750000,RH_EXTIMU,2.29682895193e-06,1.53152848294e-05,-0.703301480938,0.710891712338,0.0,0.0,0.0,0.0,0.0,0.0,0.0,0.0,0.0,-1.93073384331e-07,-4.06580584685e-08,-7.202772701e-05,0.0,0.0,0.0,0.0,0.0,0.0,0.0,0.0,0.0,-0.00024652741742,-0.000175289840187,9.8099822123,0.0,0.0,0.0,0.0,0.0,0.0,0.0,0.0,0.0
118351500000,11294,118350250000,RH_EXTIMU,2.29708895821e-06,1.53151616449e-05,-0.703301544942,0.710891649017,0.0,0.0,0.0,0.0,0.0,0.0,0.0,0.0,0.0,2.18078263107e-07,7.68918003316e-08,-7.202715001e-05,0.0,0.0,0.0,0.0,0.0,0.0,0.0,0.0,0.0,-0.000243480907878,-0.000184023261071,9.81000500716,0.0,0.0,0.0,0.0,0.0,0.0,0.0,0.0,0.0
118352750000,11295,118352750000,RH_EXTIMU,2.29713285907e-06,1.53151303688e-05,-0.703301608946,0.710891585696,0.0,0.0,0.0,0.0,0.0,0.0,0.0,0.0,0.0,4.34648147323e-08,7.57144517685e-09,-7.20263628173e-05,0.0,0.0,0.0,0.0,0.0,0.0,0.0,0.0,0.0,-0.000245409803025,-0.000179872184694,9.810004054,0.0,0.0,0.0,0.0,0.0,0.0,0.0,0.0,0.0
118355250000,11296,118355250000,RH_EXTIMU,2.29717939994e-06,1.53151409311e-05,-0.703301672949,0.710891522377,0.0,0.0,0.0,0.0,0.0,0.0,0.0,0.0,0.0,2.14261317473e-08,3.28509423978e-08,-7.20255792581e-05,0.0,0.0,0.0,0.0,0.0,0.0,0.0,0.0,0.0,-0.000244777538693,-0.000179584078063,9.81001164072,0.0,0.0,0.0,0.0,0.0,0.0,0.0,0.0,0.0
118357750000,11297,118357750000,RH_EXTIMU,2.29693746797e-06,1.53152342865e-05,-0.703301736951,0.710891459058,0.0,0.0,0.0,0.0,0.0,0.0,0.0,0.0,0.0,-1.89215018154e-07,-8.23702788951e-08,-7.20248345738e-05,0.0,0.0,0.0,0.0,0.0,0.0,0.0,0.0,0.0,-0.000247250626271,-0.000175433032443,9.80998583536,0.0,0.0,0.0,0.0,0.0,0.0,0.0,0.0,0.0
118360250000,11298,118360250000,RH_EXTIMU,2.29711829715e-06,1.53151237222e-05,-0.703301800953,0.710891395739,0.0,0.0,0.0,0.0,0.0,0.0,0.0,0.0,0.0,1.65948516373e-07,3.9520775609e-08,-7.20241915396e-05,0.0,0.0,0.0,0.0,0.0,0.0,0.0,0.0,0.0,-0.000243912895784,-0.000183011917424,9.81000812106,0.0,0.0,0.0,0.0,0.0,0.0,0.0,0.0,0.0
118362750000,11299,118362750000,RH_EXTIMU,2.29712133108e-06,1.53151531115e-05,-0.703301864954,0.710891332422,0.0,0.0,0.0,0.0,0.0,0.0,0.0,0.0,0.0,-1.39096911755e-08,1.90792417062e-08,-7.20234725571e-05,0.0,0.0,0.0,0.0,0.0,0.0,0.0,0.0,0.0,-0.00024504896608,-0.000178850809819,9.80999613464,0.0,0.0,0.0,0.0,0.0,0.0,0.0,0.0,0.0
118365250000,11300,118365250000,RH_EXTIMU,2.29710779713e-06,1.53150990878e-05,-0.703301928955,0.710891269104,0.0,0.0,0.0,0.0,0.0,0.0,0.0,0.0,0.0,2.35995407472e-08,-3.76805823079e-08,-7.20227404374e-05,0.0,0.0,0.0,0.0,0.0,0.0,0.0,0.0,0.0,-0.000246124683244,-0.000179706751565,9.80999822589,0.0,0.0,0.0,0.0,0.0,0.0,0.0,0.0,0.0
118367750000,11301,118367750000,RH_EXTIMU,2.29731849491e-06,1.53151104257e-05,-0.703301992954,0.710891205788,0.0,0.0,0.0,0.0,0.0,0.0,0.0,0.0,0.0,1.14347914728e-07,1.25653449018e-07,-7.20221024041e-05,0.0,0.0,0.0,0.0,0.0,0.0,0.0,0.0,0.0,-0.000242837982861,-0.000181440426918,9.81000517731,0.0,0.0,0.0,0.0,0.0,0.0,0.0,0.0,0.0
118370250000,11302,118370250000,RH_EXTIMU,2.29728884234e-06,1.53151134245e-05,-0.703302056954,0.710891142472,0.0,0.0,0.0,0.0,0.0,0.0,0.0,0.0,0.0,-1.76505836123e-08,-1.43201554653e-08,-7.20213826017e-05,0.0,0.0,0.0,0.0,0.0,0.0,0.0,0.0,0.0,-0.000246056821977,-0.000178864583989,9.80999238221,0.0,0.0,0.0,0.0,0.0,0.0,0.0,0.0,0.0
118372750000,11303,118372750000,RH_EXTIMU,2.297224263e-06,1.53150597585e-05,-0.703302120952,0.710891079157,0.0,0.0,0.0,0.0,0.0,0.0,0.0,0.0,0.0,-5.63191995011e-09,-6.61974236528e-08,-7.20206776878e-05,0.0,0.0,0.0,0.0,0.0,0.0,0.0,0.0,0.0,-0.000246628977274,-0.000178897330424,9.80999186816,0.0,0.0,0.0,0.0,0.0,0.0,0.0,0.0,0.0
118376500000,11304,118375250000,RH_EXTIMU,2.29728479442e-06,1.53149234235e-05,-0.70330218495,0.710891015842,0.0,0.0,0.0,0.0,0.0,0.0,0.0,0.0,0.0,1.12033245584e-07,-4.28198745927e-08,-7.20199455261e-05,0.0,0.0,0.0,0.0,0.0,0.0,0.0,0.0,0.0,-0.000245507170473,-0.000181727057179,9.81000752958,0.0,0.0,0.0,0.0,0.0,0.0,0.0,0.0,0.0
118377750000,11305,118377750000,RH_EXTIMU,2.29716906213e-06,1.53149536227e-05,-0.703302248947,0.710890952528,0.0,0.0,0.0,0.0,0.0,0.0,0.0,0.0,0.0,-8.1909356676e-08,-4.7283009795e-08,-7.20191183856e-05,0.0,0.0,0.0,0.0,0.0,0.0,0.0,0.0,0.0,-0.000246138427965,-0.000177260897142,9.81000137083,0.0,0.0,0.0,0.0,0.0,0.0,0.0,0.0,0.0
118380250000,11306,118380250000,RH_EXTIMU,2.29720447179e-06,1.53149535458e-05,-0.703302312944,0.710890889214,0.0,0.0,0.0,0.0,0.0,0.0,0.0,0.0,0.0,2.10816595926e-08,2.05372990969e-08,-7.20185209504e-05,0.0,0.0,0.0,0.0,0.0,0.0,0.0,0.0,0.0,-0.000244719485611,-0.000179964438403,9.8099920058,0.0,0.0,0.0,0.0,0.0,0.0,0.0,0.0,0.0
118382750000,11307,118382750000,RH_EXTIMU,2.29727936307e-06,1.53149421752e-05,-0.70330237694,0.710890825901,0.0,0.0,0.0,0.0,0.0,0.0,0.0,0.0,0.0,4.98896313777e-08,3.63284552894e-08,-7.20178695593e-05,0.0,0.0,0.0,0.0,0.0,0.0,0.0,0.0,0.0,-0.000244717017091,-0.000180083606432,9.80999274519,0.0,0.0,0.0,0.0,0.0,0.0,0.0,0.0,0.0
118385250000,11308,118385250000,RH_EXTIMU,2.29742177536e-06,1.53148570339e-05,-0.703302440935,0.710890762589,0.0,0.0,0.0,0.0,0.0,0.0,0.0,0.0,0.0,1.29796158181e-07,3.23642823329e-08,-7.20171404475e-05,0.0,0.0,0.0,0.0,0.0,0.0,0.0,0.0,0.0,-0.000244891769814,-0.000181832078653,9.81000983832,0.0,0.0,0.0,0.0,0.0,0.0,0.0,0.0,0.0
118387750000,11309,118387750000,RH_EXTIMU,2.29732912314e-06,1.53149402915e-05,-0.70330250493,0.710890699278,0.0,0.0,0.0,0.0,0.0,0.0,0.0,0.0,0.0,-9.86362970567e-08,-4.1222985011e-09,-7.20162487998e-05,0.0,0.0,0.0,0.0,0.0,0.0,0.0,0.0,0.0,-0.000245475468458,-0.000177025948651,9.81001328774,0.0,0.0,0.0,0.0,0.0,0.0,0.0,0.0,0.0
118390250000,11310,118390250000,RH_EXTIMU,2.29722730817e-06,1.53149716598e-05,-0.703302568924,0.710890635967,0.0,0.0,0.0,0.0,0.0,0.0,0.0,0.0,0.0,-7.46521546121e-08,-3.87877774331e-08,-7.20156489778e-05,0.0,0.0,0.0,0.0,0.0,0.0,0.0,0.0,0.0,-0.000245878355765,-0.000178435966681,9.80998143376,0.0,0.0,0.0,0.0,0.0,0.0,0.0,0.0,0.0
118392750000,11311,118392750000,RH_EXTIMU,2.29731056875e-06,1.53147876828e-05,-0.703302632918,0.710890572656,0.0,0.0,0.0,0.0,0.0,0.0,0.0,0.0,0.0,1.51764927867e-07,-5.71260433994e-08,-7.20150210056e-05,0.0,0.0,0.0,0.0,0.0,0.0,0.0,0.0,0.0,-0.000246315653872,-0.000181958326003,9.80998850658,0.0,0.0,0.0,0.0,0.0,0.0,0.0,0.0,0.0
118395250000,11312,118395250000,RH_EXTIMU,2.29752457596e-06,1.53146954884e-05,-0.70330269691,0.710890509346,0.0,0.0,0.0,0.0,0.0,0.0,0.0,0.0,0.0,1.74481378703e-07,6.86354299347e-08,-7.20142098753e-05,0.0,0.0,0.0,0.0,0.0,0.0,0.0,0.0,0.0,-0.000243946865669,-0.000182080207042,9.81002351759,0.0,0.0,0.0,0.0,0.0,0.0,0.0,0.0,0.0
118397750000,11313,118397750000,RH_EXTIMU,2.29733992192e-06,1.53148258664e-05,-0.703302760902,0.710890446037,0.0,0.0,0.0,0.0,0.0,0.0,0.0,0.0,0.0,-1.77470817998e-07,-2.90885397075e-08,-7.2013363071e-05,0.0,0.0,0.0,0.0,0.0,0.0,0.0,0.0,0.0,-0.000245933990447,-0.000176016222997,9.81000586635,0.0,0.0,0.0,0.0,0.0,0.0,0.0,0.0,0.0
118400250000,11314,118400250000,RH_EXTIMU,2.29728272043e-06,1.53148836739e-05,-0.703302824894,0.710890382729,0.0,0.0,0.0,0.0,0.0,0.0,0.0,0.0,0.0,-6.41557302096e-08,1.34987552092e-09,-7.20126559359e-05,0.0,0.0,0.0,0.0,0.0,0.0,0.0,0.0,0.0,-0.000245203743075,-0.000178379225345,9.8099987066,0.0,0.0,0.0,0.0,0.0,0.0,0.0,0.0,0.0
118402750000,11315,118402750000,RH_EXTIMU,2.29745264328e-06,1.53148393157e-05,-0.703302888885,0.710890319421,0.0,0.0,0.0,0.0,0.0,0.0,0.0,0.0,0.0,1.22495326535e-07,7.10367990141e-08,-7.20120138187e-05,0.0,0.0,0.0,0.0,0.0,0.0,0.0,0.0,0.0,-0.000243821937946,-0.000182053322903,9.81000212815,0.0,0.0,0.0,0.0,0.0,0.0,0.0,0.0,0.0
118405250000,11316,118405250000,RH_EXTIMU,2.29752265881e-06,1.53148479213e-05,-0.703302952875,0.710890256114,0.0,0.0,0.0,0.0,0.0,0.0,0.0,0.0,0.0,3.58771766004e-08,4.49458244015e-08,-7.20113287623e-05,0.0,0.0,0.0,0.0,0.0,0.0,0.0,0.0,0.0,-0.000244984500734,-0.000179448196615,9.80999343574,0.0,0.0,0.0,0.0,0.0,0.0,0.0,0.0,0.0
118407750000,11317,118407750000,RH_EXTIMU,2.29757891849e-06,1.53148017047e-05,-0.703303016864,0.710890192807,0.0,0.0,0.0,0.0,0.0,0.0,0.0,0.0,0.0,5.88993363032e-08,6.02814787819e-09,-7.20106960689e-05,0.0,0.0,0.0,0.0,0.0,0.0,0.0,0.0,0.0,-0.000245485514873,-0.000180337880343,9.80999229179,0.0,0.0,0.0,0.0,0.0,0.0,0.0,0.0,0.0
118410250000,11318,118410250000,RH_EXTIMU,2.29758479213e-06,1.53147031141e-05,-0.703303080853,0.710890129501,0.0,0.0,0.0,0.0,0.0,0.0,0.0,0.0,0.0,5.97120221686e-08,-5.21069378188e-08,-7.20098321415e-05,0.0,0.0,0.0,0.0,0.0,0.0,0.0,0.0,0.0,-0.000246186536703,-0.000180192401036,9.81001429041,0.0,0.0,0.0,0.0,0.0,0.0,0.0,0.0,0.0
118412750000,11319,118412750000,RH_EXTIMU,2.29734073047e-06,1.53147372445e-05,-0.703303144841,0.710890066196,0.0,0.0,0.0,0.0,0.0,0.0,0.0,0.0,0.0,-1.57103683204e-07,-1.17251114174e-07,-7.20090861328e-05,0.0,0.0,0.0,0.0,0.0,0.0,0.0,0.0,0.0,-0.000246996611364,-0.000176467553441,9.80999068156,0.0,0.0,0.0,0.0,0.0,0.0,0.0,0.0,0.0
118415250000,11320,118415250000,RH_EXTIMU,2.2973594195e-06,1.53146580945e-05,-0.703303208829,0.710890002891,0.0,0.0,0.0,0.0,0.0,0.0,0.0,0.0,0.0,5.60621079505e-08,-3.38402889488e-08,-7.20084858196e-05,0.0,0.0,0.0,0.0,0.0,0.0,0.0,0.0,0.0,-0.000245559894714,-0.000180505593988,9.80998728982,0.0,0.0,0.0,0.0,0.0,0.0,0.0,0.0,0.0
118417750000,11321,118417750000,RH_EXTIMU,2.29750861102e-06,1.53145558754e-05,-0.703303272816,0.710889939587,0.0,0.0,0.0,0.0,0.0,0.0,0.0,0.0,0.0,1.43260150776e-07,2.64662303072e-08,-7.20078161308e-05,0.0,0.0,0.0,0.0,0.0,0.0,0.0,0.0,0.0,-0.000244635968413,-0.000181785499324,9.81000085064,0.0,0.0,0.0,0.0,0.0,0.0,0.0,0.0,0.0
118420250000,11322,118420250000,RH_EXTIMU,2.297628206e-06,1.53145735535e-05,-0.703303336802,0.710889876284,0.0,0.0,0.0,0.0,0.0,0.0,0.0,0.0,0.0,5.89689157589e-08,7.80009622038e-08,-7.20070513869e-05,0.0,0.0,0.0,0.0,0.0,0.0,0.0,0.0,0.0,-0.000243901159533,-0.00018025384162,9.81001097055,0.0,0.0,0.0,0.0,0.0,0.0,0.0,0.0,0.0
118422750000,11323,118422750000,RH_EXTIMU,2.29762118911e-06,1.53146635005e-05,-0.703303400788,0.710889812981,0.0,0.0,0.0,0.0,0.0,0.0,0.0,0.0,0.0,-5.36983068673e-08,4.78638639271e-08,-7.20062705868e-05,0.0,0.0,0.0,0.0,0.0,0.0,0.0,0.0,0.0,-0.000245044826066,-0.000178071107023,9.81000741844,0.0,0.0,0.0,0.0,0.0,0.0,0.0,0.0,0.0
118425250000,11324,118425250000,RH_EXTIMU,2.29756083755e-06,1.53146975984e-05,-0.703303464773,0.710889749679,0.0,0.0,0.0,0.0,0.0,0.0,0.0,0.0,0.0,-5.26073183641e-08,-1.39065227016e-08,-7.20055405977e-05,0.0,0.0,0.0,0.0,0.0,0.0,0.0,0.0,0.0,-0.000245600898478,-0.00017859062772,9.80999826609,0.0,0.0,0.0,0.0,0.0,0.0,0.0,0.0,0.0
118427750000,11325,118427750000,RH_EXTIMU,2.29758795189e-06,1.53146180992e-05,-0.703303528758,0.710889686377,0.0,0.0,0.0,0.0,0.0,0.0,0.0,0.0,0.0,6.10501525045e-08,-2.92984730022e-08,-7.20048505704e-05,0.0,0.0,0.0,0.0,0.0,0.0,0.0,0.0,0.0,-0.000245899622751,-0.000180540511941,9.80999618787,0.0,0.0,0.0,0.0,0.0,0.0,0.0,0.0,0.0
118430250000,11326,118430250000,RH_EXTIMU,2.29763539233e-06,1.53145165306e-05,-0.703303592741,0.710889623076,0.0,0.0,0.0,0.0,0.0,0.0,0.0,0.0,0.0,8.50270359387e-08,-3.04132957007e-08,-7.20041450865e-05,0.0,0.0,0.0,0.0,0.0,0.0,0.0,0.0,0.0,-0.000245496626757,-0.00018069516055,9.8100014385,0.0,0.0,0.0,0.0,0.0,0.0,0.0,0.0,0.0
118430250000,11327,118432750000,RH_EXTIMU,2.29758272422e-06,1.53146009187e-05,-0.703303656724,0.710889559776,0.0,0.0,0.0,0.0,0.0,0.0,0.0,0.0,0.0,-7.65330733794e-08,1.90170712502e-08,-7.20033941606e-05,0.0,0.0,0.0,0.0,0.0,0.0,0.0,0.0,0.0,-0.000245018938019,-0.000177598380344,9.80999854343,0.0,0.0,0.0,0.0,0.0,0.0,0.0,0.0,0.0
118430250000,11328,118435250000,RH_EXTIMU,2.29763855299e-06,1.53145758371e-05,-0.703303720707,0.710889496476,0.0,0.0,0.0,0.0,0.0,0.0,0.0,0.0,0.0,4.67627320131e-08,1.78053651818e-08,-7.20027866879e-05,0.0,0.0,0.0,0.0,0.0,0.0,0.0,0.0,0.0,-0.000245030435349,-0.000180357583015,9.80998980383,0.0,0.0,0.0,0.0,0.0,0.0,0.0,0.0,0.0
118437750000,11329,118437750000,RH_EXTIMU,2.29769334261e-06,1.531451353e-05,-0.703303784689,0.710889433177,0.0,0.0,0.0,0.0,0.0,0.0,0.0,0.0,0.0,6.71163865056e-08,-3.94986724905e-09,-7.200212769e-05,0.0,0.0,0.0,0.0,0.0,0.0,0.0,0.0,0.0,-0.000245496342398,-0.000180274620909,9.80999318377,0.0,0.0,0.0,0.0,0.0,0.0,0.0,0.0,0.0
118440250000,11330,118440250000,RH_EXTIMU,2.2976969468e-06,1.53144579033e-05,-0.70330384867,0.710889369878,0.0,0.0,0.0,0.0,0.0,0.0,0.0,0.0,0.0,3.42479077871e-08,-2.89497435644e-08,-7.20013542803e-05,0.0,0.0,0.0,0.0,0.0,0.0,0.0,0.0,0.0,-0.000245738598237,-0.000179867645482,9.81000455243,0.0,0.0,0.0,0.0,0.0,0.0,0.0,0.0,0.0
118442750000,11331,118442750000,RH_EXTIMU,2.29762950522e-06,1.53144468892e-05,-0.703303912651,0.710889306581,0.0,0.0,0.0,0.0,0.0,0.0,0.0,0.0,0.0,-3.12575900276e-08,-4.3551479874e-08,-7.20005588758e-05,0.0,0.0,0.0,0.0,0.0,0.0,0.0,0.0,0.0,-0.000245960347987,-0.000178578951806,9.81000483426,0.0,0.0,0.0,0.0,0.0,0.0,0.0,0.0,0.0
118445250000,11332,118445250000,RH_EXTIMU,2.2977420542e-06,1.53144545523e-05,-0.703303976631,0.710889243283,0.0,0.0,0.0,0.0,0.0,0.0,0.0,0.0,0.0,6.05965403993e-08,6.8340851425e-08,-7.19998718181e-05,0.0,0.0,0.0,0.0,0.0,0.0,0.0,0.0,0.0,-0.00024357510954,-0.000180818834255,9.81000646852,0.0,0.0,0.0,0.0,0.0,0.0,0.0,0.0,0.0
118449000000,11333,118447750000,RH_EXTIMU,2.29786554059e-06,1.53145024339e-05,-0.70330404061,0.710889179987,0.0,0.0,0.0,0.0,0.0,0.0,0.0,0.0,0.0,4.41880335326e-08,9.73674968749e-08,-7.19991879514e-05,0.0,0.0,0.0,0.0,0.0,0.0,0.0,0.0,0.0,-0.000244194728948,-0.000179899402569,9.81000107443,0.0,0.0,0.0,0.0,0.0,0.0,0.0,0.0,0.0
118454000000,11334,118450250000,RH_EXTIMU,2.29786980768e-06,1.53144846575e-05,-0.703304104588,0.710889116691,0.0,0.0,0.0,0.0,0.0,0.0,0.0,0.0,0.0,1.33287075911e-08,-7.05092116484e-09,-7.19984456252e-05,0.0,0.0,0.0,0.0,0.0,0.0,0.0,0.0,0.0,-0.000245872015512,-0.000179479268711,9.81000081948,0.0,0.0,0.0,0.0,0.0,0.0,0.0,0.0,0.0
118454000000,11335,118452750000,RH_EXTIMU,2.29781343838e-06,1.5314441893e-05,-0.703304168566,0.710889053395,0.0,0.0,0.0,0.0,0.0,0.0,0.0,0.0,0.0,-7.09648033192e-09,-5.53786394345e-08,-7.19976773551e-05,0.0,0.0,0.0,0.0,0.0,0.0,0.0,0.0,0.0,-0.000246101297936,-0.000179138957373,9.81000180296,0.0,0.0,0.0,0.0,0.0,0.0,0.0,0.0,0.0
118455250000,11336,118455250000,RH_EXTIMU,2.29785688127e-06,1.53144281368e-05,-0.703304232544,0.710888990101,0.0,0.0,0.0,0.0,0.0,0.0,0.0,0.0,0.0,3.334644353e-08,1.72774225514e-08,-7.19969687168e-05,0.0,0.0,0.0,0.0,0.0,0.0,0.0,0.0,0.0,-0.000244798120207,-0.000179960850674,9.81000307713,0.0,0.0,0.0,0.0,0.0,0.0,0.0,0.0,0.0
118457750000,11337,118457750000,RH_EXTIMU,2.29779443624e-06,1.5314425503e-05,-0.70330429652,0.710888926807,0.0,0.0,0.0,0.0,0.0,0.0,0.0,0.0,0.0,-3.31311064718e-08,-3.59743350329e-08,-7.19962476285e-05,0.0,0.0,0.0,0.0,0.0,0.0,0.0,0.0,0.0,-0.000246218662097,-0.000178497003377,9.80999327311,0.0,0.0,0.0,0.0,0.0,0.0,0.0,0.0,0.0
118460250000,11338,118460250000,RH_EXTIMU,2.29782087292e-06,1.53143201396e-05,-0.703304360497,0.710888863513,0.0,0.0,0.0,0.0,0.0,0.0,0.0,0.0,0.0,7.52170022881e-08,-4.43890641636e-08,-7.19955913154e-05,0.0,0.0,0.0,0.0,0.0,0.0,0.0,0.0,0.0,-0.000245726399633,-0.000180852408431,9.80999380741,0.0,0.0,0.0,0.0,0.0,0.0,0.0,0.0,0.0
118462750000,11339,118462750000,RH_EXTIMU,2.29785978596e-06,1.53142980721e-05,-0.703304424472,0.71088880022,0.0,0.0,0.0,0.0,0.0,0.0,0.0,0.0,0.0,3.54465508996e-08,1.00019643488e-08,-7.19948843592e-05,0.0,0.0,0.0,0.0,0.0,0.0,0.0,0.0,0.0,-0.000244965029843,-0.000179659980738,9.81000001381,0.0,0.0,0.0,0.0,0.0,0.0,0.0,0.0,0.0
118465250000,11340,118465250000,RH_EXTIMU,2.2978701852e-06,1.53143088759e-05,-0.703304488447,0.710888736928,0.0,0.0,0.0,0.0,0.0,0.0,0.0,0.0,0.0,7.35597594879e-10,1.26531259349e-08,-7.19941512129e-05,0.0,0.0,0.0,0.0,0.0,0.0,0.0,0.0,0.0,-0.000245152958118,-0.000179244407712,9.81000118147,0.0,0.0,0.0,0.0,0.0,0.0,0.0,0.0,0.0
118467750000,11341,118467750000,RH_EXTIMU,2.29793408117e-06,1.53142683218e-05,-0.703304552421,0.710888673636,0.0,0.0,0.0,0.0,0.0,0.0,0.0,0.0,0.0,6.00559708002e-08,1.35449032976e-08,-7.19933239803e-05,0.0,0.0,0.0,0.0,0.0,0.0,0.0,0.0,0.0,-0.000245219433401,-0.000180384078403,9.81001698925,0.0,0.0,0.0,0.0,0.0,0.0,0.0,0.0,0.0
118470250000,11342,118470250000,RH_EXTIMU,2.29763556345e-06,1.53143581595e-05,-0.703304616394,0.710888610345,0.0,0.0,0.0,0.0,0.0,0.0,0.0,0.0,0.0,-2.19416813146e-07,-1.16209591112e-07,-7.19925334796e-05,0.0,0.0,0.0,0.0,0.0,0.0,0.0,0.0,0.0,-0.000247713224344,-0.000174842591132,9.80998968098,0.0,0.0,0.0,0.0,0.0,0.0,0.0,0.0,0.0
118472750000,11343,118472750000,RH_EXTIMU,2.29762454737e-06,1.53142396302e-05,-0.703304680367,0.710888547055,0.0,0.0,0.0,0.0,0.0,0.0,0.0,0.0,0.0,6.13248934824e-08,-7.2949210782e-08,-7.19919334632e-05,0.0,0.0,0.0,0.0,0.0,0.0,0.0,0.0,0.0,-0.000245710216623,-0.000181168425078,9.80998986224,0.0,0.0,0.0,0.0,0.0,0.0,0.0,0.0,0.0
118475250000,11344,118475250000,RH_EXTIMU,2.29802899009e-06,1.53142154701e-05,-0.703304744339,0.710888483765,0.0,0.0,0.0,0.0,0.0,0.0,0.0,0.0,0.0,2.44504597908e-07,2.14474816687e-07,-7.19912167398e-05,0.0,0.0,0.0,0.0,0.0,0.0,0.0,0.0,0.0,-0.000241368876447,-0.000183529629143,9.81002497082,0.0,0.0,0.0,0.0,0.0,0.0,0.0,0.0,0.0
118477750000,11345,118477750000,RH_EXTIMU,2.29774741947e-06,1.53143274179e-05,-0.703304808311,0.710888420476,0.0,0.0,0.0,0.0,0.0,0.0,0.0,0.0,0.0,-2.22218898358e-07,-9.41002585882e-08,-7.19904836256e-05,0.0,0.0,0.0,0.0,0.0,0.0,0.0,0.0,0.0,-0.000247566873087,-0.000175149021475,9.80997780393,0.0,0.0,0.0,0.0,0.0,0.0,0.0,0.0,0.0
118480250000,11346,118480250000,RH_EXTIMU,2.29798875764e-06,1.53141426883e-05,-0.703304872282,0.710888357188,0.0,0.0,0.0,0.0,0.0,0.0,0.0,0.0,0.0,2.42088669067e-07,3.13874996566e-08,-7.19899174943e-05,0.0,0.0,0.0,0.0,0.0,0.0,0.0,0.0,0.0,-0.000244371924291,-0.000184043828791,9.80999576754,0.0,0.0,0.0,0.0,0.0,0.0,0.0,0.0,0.0
118482750000,11347,118482750000,RH_EXTIMU,2.29812282047e-06,1.53140913387e-05,-0.703304936252,0.7108882939,0.0,0.0,0.0,0.0,0.0,0.0,0.0,0.0,0.0,1.06034559224e-07,4.68843337375e-08,-7.19891855361e-05,0.0,0.0,0.0,0.0,0.0,0.0,0.0,0.0,0.0,-0.000244587335786,-0.00018073362525,9.81000639375,0.0,0.0,0.0,0.0,0.0,0.0,0.0,0.0,0.0
118485250000,11348,118485250000,RH_EXTIMU,2.29787920782e-06,1.53142344503e-05,-0.703305000222,0.710888230613,0.0,0.0,0.0,0.0,0.0,0.0,0.0,0.0,0.0,-2.18165913975e-07,-5.50203566967e-08,-7.19883584954e-05,0.0,0.0,0.0,0.0,0.0,0.0,0.0,0.0,0.0,-0.0002469140934,-0.000174533797668,9.8099941555,0.0,0.0,0.0,0.0,0.0,0.0,0.0,0.0,0.0
118487750000,11349,118487750000,RH_EXTIMU,2.29792794306e-06,1.53141367742e-05,-0.703305064191,0.710888167326,0.0,0.0,0.0,0.0,0.0,0.0,0.0,0.0,0.0,8.35731603893e-08,-2.74710803779e-08,-7.19877175464e-05,0.0,0.0,0.0,0.0,0.0,0.0,0.0,0.0,0.0,-0.000245087002873,-0.000181809566033,9.81000072311,0.0,0.0,0.0,0.0,0.0,0.0,0.0,0.0,0.0
118490250000,11350,118490250000,RH_EXTIMU,2.29794975655e-06,1.53140864369e-05,-0.703305128159,0.71088810404,0.0,0.0,0.0,0.0,0.0,0.0,0.0,0.0,0.0,4.1627569556e-08,-1.56963633274e-08,-7.19869184015e-05,0.0,0.0,0.0,0.0,0.0,0.0,0.0,0.0,0.0,-0.000245575249481,-0.00017968810747,9.8100061752,0.0,0.0,0.0,0.0,0.0,0.0,0.0,0.0,0.0
118492750000,11351,118492750000,RH_EXTIMU,2.29794462272e-06,1.53141153171e-05,-0.703305192127,0.710888040755,0.0,0.0,0.0,0.0,0.0,0.0,0.0,0.0,0.0,-1.8268873383e-08,1.41936404711e-08,-7.19861802296e-05,0.0,0.0,0.0,0.0,0.0,0.0,0.0,0.0,0.0,-0.000244993985017,-0.000178918081433,9.81000462457,0.0,0.0,0.0,0.0,0.0,0.0,0.0,0.0,0.0
118495250000,11352,118495250000,RH_EXTIMU,2.29806010011e-06,1.53141722086e-05,-0.703305256094,0.71088797747,0.0,0.0,0.0,0.0,0.0,0.0,0.0,0.0,0.0,3.45635210838e-08,9.79852204093e-08,-7.19854620124e-05,0.0,0.0,0.0,0.0,0.0,0.0,0.0,0.0,0.0,-0.000243669702038,-0.000180033465509,9.81000889144,0.0,0.0,0.0,0.0,0.0,0.0,0.0,0.0,0.0
118497750000,11353,118497750000,RH_EXTIMU,2.29791565082e-06,1.53142320003e-05,-0.70330532006,0.710887914186,0.0,0.0,0.0,0.0,0.0,0.0,0.0,0.0,0.0,-1.14891254061e-07,-4.66116786436e-08,-7.19847290928e-05,0.0,0.0,0.0,0.0,0.0,0.0,0.0,0.0,0.0,-0.000246804782722,-0.000176860869076,9.80998809959,0.0,0.0,0.0,0.0,0.0,0.0,0.0,0.0,0.0
118501500000,11354,118500250000,RH_EXTIMU,2.29803393919e-06,1.53140512746e-05,-0.703305384026,0.710887850902,0.0,0.0,0.0,0.0,0.0,0.0,0.0,0.0,0.0,1.69856102448e-07,-3.55685804809e-08,-7.19841216654e-05,0.0,0.0,0.0,0.0,0.0,0.0,0.0,0.0,0.0,-0.000245265473779,-0.000183105341117,9.80999632148,0.0,0.0,0.0,0.0,0.0,0.0,0.0,0.0,0.0
118501500000,11355,118502750000,RH_EXTIMU,2.29807066846e-06,1.53139832226e-05,-0.703305447991,0.71088778762,0.0,0.0,0.0,0.0,0.0,0.0,0.0,0.0,0.0,6.00773574858e-08,-1.73786360329e-08,-7.19833330821e-05,0.0,0.0,0.0,0.0,0.0,0.0,0.0,0.0,0.0,-0.000245585786318,-0.000179764806985,9.81000624401,0.0,0.0,0.0,0.0,0.0,0.0,0.0,0.0,0.0
118501500000,11356,118505250000,RH_EXTIMU,2.2980764256e-06,1.53140328485e-05,-0.703305511955,0.710887724337,0.0,0.0,0.0,0.0,0.0,0.0,0.0,0.0,0.0,-2.3747561416e-08,3.2119623691e-08,-7.19825267137e-05,0.0,0.0,0.0,0.0,0.0,0.0,0.0,0.0,0.0,-0.00024460366892,-0.000178987919978,9.81001441813,0.0,0.0,0.0,0.0,0.0,0.0,0.0,0.0,0.0
118507750000,11357,118507750000,RH_EXTIMU,2.29801821787e-06,1.53141036054e-05,-0.703305575919,0.710887661056,0.0,0.0,0.0,0.0,0.0,0.0,0.0,0.0,0.0,-7.20143663837e-08,8.14763379734e-09,-7.19817557755e-05,0.0,0.0,0.0,0.0,0.0,0.0,0.0,0.0,0.0,-0.000245402788246,-0.000177961864172,9.81000093957,0.0,0.0,0.0,0.0,0.0,0.0,0.0,0.0,0.0
118510250000,11358,118510250000,RH_EXTIMU,2.29806198359e-06,1.5314071017e-05,-0.703305639882,0.710887597775,0.0,0.0,0.0,0.0,0.0,0.0,0.0,0.0,0.0,4.41256640023e-08,6.74886023764e-09,-7.1981165931e-05,0.0,0.0,0.0,0.0,0.0,0.0,0.0,0.0,0.0,-0.000245234735356,-0.000180202294002,9.8099891025,0.0,0.0,0.0,0.0,0.0,0.0,0.0,0.0,0.0
118512750000,11359,118512750000,RH_EXTIMU,2.2980727639e-06,1.53140437409e-05,-0.703305703845,0.710887534495,0.0,0.0,0.0,0.0,0.0,0.0,0.0,0.0,0.0,2.23776104461e-08,-8.78906736868e-09,-7.19805238343e-05,0.0,0.0,0.0,0.0,0.0,0.0,0.0,0.0,0.0,-0.000245507525941,-0.000179424497538,9.80998637124,0.0,0.0,0.0,0.0,0.0,0.0,0.0,0.0,0.0
118515250000,11360,118515250000,RH_EXTIMU,2.29816347994e-06,1.53139334904e-05,-0.703305767807,0.710887471215,0.0,0.0,0.0,0.0,0.0,0.0,0.0,0.0,0.0,1.14522874878e-07,-1.100197592e-08,-7.19798953579e-05,0.0,0.0,0.0,0.0,0.0,0.0,0.0,0.0,0.0,-0.000245394683863,-0.000181404140991,9.80999146797,0.0,0.0,0.0,0.0,0.0,0.0,0.0,0.0,0.0
118517750000,11361,118517750000,RH_EXTIMU,2.29822593088e-06,1.53138530551e-05,-0.703305831768,0.710887407936,0.0,0.0,0.0,0.0,0.0,0.0,0.0,0.0,0.0,8.16729348623e-08,-9.94905790035e-09,-7.19791522883e-05,0.0,0.0,0.0,0.0,0.0,0.0,0.0,0.0,0.0,-0.000245333254287,-0.000180505462484,9.81000402535,0.0,0.0,0.0,0.0,0.0,0.0,0.0,0.0,0.0
118520250000,11362,118520250000,RH_EXTIMU,2.29816571232e-06,1.53139061956e-05,-0.703305895729,0.710887344657,0.0,0.0,0.0,0.0,0.0,0.0,0.0,0.0,0.0,-6.32461831353e-08,-3.00249390249e-09,-7.19783401277e-05,0.0,0.0,0.0,0.0,0.0,0.0,0.0,0.0,0.0,-0.000245405912924,-0.000177876117986,9.8100071924,0.0,0.0,0.0,0.0,0.0,0.0,0.0,0.0,0.0
118522750000,11363,118522750000,RH_EXTIMU,2.29814985812e-06,1.53139085559e-05,-0.703305959688,0.710887281379,0.0,0.0,0.0,0.0,0.0,0.0,0.0,0.0,0.0,-9.44455725567e-09,-6.92029316271e-09,-7.19775598482e-05,0.0,0.0,0.0,0.0,0.0,0.0,0.0,0.0,0.0,-0.000245459213313,-0.000179322062323,9.8100087216,0.0,0.0,0.0,0.0,0.0,0.0,0.0,0.0,0.0
118525250000,11364,118525250000,RH_EXTIMU,2.29812258416e-06,1.53139128136e-05,-0.703306023648,0.710887218102,0.0,0.0,0.0,0.0,0.0,0.0,0.0,0.0,0.0,-1.70066176574e-08,-1.22665380873e-08,-7.19768164723e-05,0.0,0.0,0.0,0.0,0.0,0.0,0.0,0.0,0.0,-0.000245438907381,-0.000179091791602,9.81000301934,0.0,0.0,0.0,0.0,0.0,0.0,0.0,0.0,0.0
118527750000,11365,118527750000,RH_EXTIMU,2.29811655013e-06,1.53139058965e-05,-0.703306087606,0.710887154826,0.0,0.0,0.0,0.0,0.0,0.0,0.0,0.0,0.0,1.36014180073e-09,-6.67120937426e-09,-7.19761253598e-05,0.0,0.0,0.0,0.0,0.0,0.0,0.0,0.0,0.0,-0.000245350928201,-0.000179385675741,9.80999655156,0.0,0.0,0.0,0.0,0.0,0.0,0.0,0.0,0.0
118531500000,11366,118530250000,RH_EXTIMU,2.29829529112e-06,1.53139115111e-05,-0.703306151564,0.71088709155,0.0,0.0,0.0,0.0,0.0,0.0,0.0,0.0,0.0,9.93926403595e-08,1.0441836231e-07,-7.19754713206e-05,0.0,0.0,0.0,0.0,0.0,0.0,0.0,0.0,0.0,-0.000243420570285,-0.000181106654628,9.81000359945,0.0,0.0,0.0,0.0,0.0,0.0,0.0,0.0,0.0
118532750000,11367,118532750000,RH_EXTIMU,2.2981906813e-06,1.53138804268e-05,-0.703306215522,0.710887028274,0.0,0.0,0.0,0.0,0.0,0.0,0.0,0.0,0.0,-4.11033279378e-08,-7.58785029485e-08,-7.19747644179e-05,0.0,0.0,0.0,0.0,0.0,0.0,0.0,0.0,0.0,-0.000247121936874,-0.000178340919529,9.80998530577,0.0,0.0,0.0,0.0,0.0,0.0,0.0,0.0,0.0
118535250000,11368,118535250000,RH_EXTIMU,2.29838413565e-06,1.53137457144e-05,-0.703306279479,0.710886964999,0.0,0.0,0.0,0.0,0.0,0.0,0.0,0.0,0.0,1.86714483703e-07,3.28914753744e-08,-7.19741086829e-05,0.0,0.0,0.0,0.0,0.0,0.0,0.0,0.0,0.0,-0.000243967752398,-0.000183016850195,9.81000616483,0.0,0.0,0.0,0.0,0.0,0.0,0.0,0.0,0.0
118537750000,11369,118537750000,RH_EXTIMU,2.29827437567e-06,1.53138171503e-05,-0.703306343435,0.710886901725,0.0,0.0,0.0,0.0,0.0,0.0,0.0,0.0,0.0,-1.01714722814e-07,-2.047206687e-08,-7.19733353805e-05,0.0,0.0,0.0,0.0,0.0,0.0,0.0,0.0,0.0,-0.000246134550589,-0.000176745022673,9.80999517789,0.0,0.0,0.0,0.0,0.0,0.0,0.0,0.0,0.0
118540250000,11370,118540250000,RH_EXTIMU,2.29828677322e-06,1.53138112713e-05,-0.70330640739,0.710886838452,0.0,0.0,0.0,0.0,0.0,0.0,0.0,0.0,0.0,1.12582484408e-08,4.28956619461e-09,-7.19726380402e-05,0.0,0.0,0.0,0.0,0.0,0.0,0.0,0.0,0.0,-0.000245171425881,-0.000179624532321,9.81000000659,0.0,0.0,0.0,0.0,0.0,0.0,0.0,0.0,0.0
118542750000,11371,118542750000,RH_EXTIMU,2.29838457314e-06,1.5313748428e-05,-0.703306471345,0.710886775179,0.0,0.0,0.0,0.0,0.0,0.0,0.0,0.0,0.0,9.18780329211e-08,1.99446644857e-08,-7.19719431255e-05,0.0,0.0,0.0,0.0,0.0,0.0,0.0,0.0,0.0,-0.000244993010961,-0.000181024778162,9.81000076712,0.0,0.0,0.0,0.0,0.0,0.0,0.0,0.0,0.0
118545250000,11372,118545250000,RH_EXTIMU,2.29837732454e-06,1.53136807979e-05,-0.703306535299,0.710886711907,0.0,0.0,0.0,0.0,0.0,0.0,0.0,0.0,0.0,3.48292719876e-08,-4.18827338679e-08,-7.19711962832e-05,0.0,0.0,0.0,0.0,0.0,0.0,0.0,0.0,0.0,-0.00024587396203,-0.000179956459845,9.81000123768,0.0,0.0,0.0,0.0,0.0,0.0,0.0,0.0,0.0
118547750000,11373,118547750000,RH_EXTIMU,2.29841794656e-06,1.53137133377e-05,-0.703306599253,0.710886648635,0.0,0.0,0.0,0.0,0.0,0.0,0.0,0.0,0.0,5.69360997786e-09,4.20189984004e-08,-7.19704705929e-05,0.0,0.0,0.0,0.0,0.0,0.0,0.0,0.0,0.0,-0.000244587741659,-0.000179100204225,9.81000435694,0.0,0.0,0.0,0.0,0.0,0.0,0.0,0.0,0.0
118550250000,11374,118550250000,RH_EXTIMU,2.29835866041e-06,1.53137776795e-05,-0.703306663206,0.710886585364,0.0,0.0,0.0,0.0,0.0,0.0,0.0,0.0,0.0,-6.90184053377e-08,3.89227851323e-09,-7.19697500004e-05,0.0,0.0,0.0,0.0,0.0,0.0,0.0,0.0,0.0,-0.000245514746739,-0.000177861104226,9.80999588554,0.0,0.0,0.0,0.0,0.0,0.0,0.0,0.0,0.0
118552750000,11375,118552750000,RH_EXTIMU,2.29857513226e-06,1.53136933414e-05,-0.703306727158,0.710886522094,0.0,0.0,0.0,0.0,0.0,0.0,0.0,0.0,0.0,1.71461808179e-07,7.44905479253e-08,-7.19690455083e-05,0.0,0.0,0.0,0.0,0.0,0.0,0.0,0.0,0.0,-0.000243506124291,-0.000183207539998,9.8100162791,0.0,0.0,0.0,0.0,0.0,0.0,0.0,0.0,0.0
118555250000,11376,118555250000,RH_EXTIMU,2.29831940106e-06,1.5313826931e-05,-0.70330679111,0.710886458824,0.0,0.0,0.0,0.0,0.0,0.0,0.0,0.0,0.0,-2.19700427756e-07,-6.72548425635e-08,-7.19681571715e-05,0.0,0.0,0.0,0.0,0.0,0.0,0.0,0.0,0.0,-0.000247609381465,-0.00017405210554,9.8099952123,0.0,0.0,0.0,0.0,0.0,0.0,0.0,0.0,0.0
118557750000,11377,118557750000,RH_EXTIMU,2.29829613858e-06,1.53137455835e-05,-0.703306855061,0.710886395555,0.0,0.0,0.0,0.0,0.0,0.0,0.0,0.0,0.0,3.34400057316e-08,-5.86940641144e-08,-7.19676045915e-05,0.0,0.0,0.0,0.0,0.0,0.0,0.0,0.0,0.0,-0.000245541529804,-0.000180718388885,9.80998706557,0.0,0.0,0.0,0.0,0.0,0.0,0.0,0.0,0.0
118560250000,11378,118560250000,RH_EXTIMU,2.29846561551e-06,1.53136372664e-05,-0.703306919011,0.710886332286,0.0,0.0,0.0,0.0,0.0,0.0,0.0,0.0,0.0,1.58226973031e-07,3.4412045519e-08,-7.1966941827e-05,0.0,0.0,0.0,0.0,0.0,0.0,0.0,0.0,0.0,-0.000244393739344,-0.00018219602755,9.80999901763,0.0,0.0,0.0,0.0,0.0,0.0,0.0,0.0,0.0
118564000000,11379,118562750000,RH_EXTIMU,2.29868313937e-06,1.53135549669e-05,-0.703306982961,0.710886269018,0.0,0.0,0.0,0.0,0.0,0.0,0.0,0.0,0.0,1.70912999775e-07,7.62418640891e-08,-7.19661773972e-05,0.0,0.0,0.0,0.0,0.0,0.0,0.0,0.0,0.0,-0.000243990170485,-0.000182382239416,9.81001810308,0.0,0.0,0.0,0.0,0.0,0.0,0.0,0.0,0.0
118565250000,11380,118565250000,RH_EXTIMU,2.29839670596e-06,1.53137392143e-05,-0.70330704691,0.710886205751,0.0,0.0,0.0,0.0,0.0,0.0,0.0,0.0,0.0,-2.65663470569e-07,-5.5719866535e-08,-7.19652824663e-05,0.0,0.0,0.0,0.0,0.0,0.0,0.0,0.0,0.0,-0.000247173249735,-0.000173367865894,9.80999769245,0.0,0.0,0.0,0.0,0.0,0.0,0.0,0.0,0.0
118567750000,11381,118567750000,RH_EXTIMU,2.29846871625e-06,1.53136652037e-05,-0.703307110858,0.710886142485,0.0,0.0,0.0,0.0,0.0,0.0,0.0,0.0,0.0,8.34944329949e-08,-9.16751678174e-10,-7.19647884926e-05,0.0,0.0,0.0,0.0,0.0,0.0,0.0,0.0,0.0,-0.000244628845382,-0.000181917511131,9.80998514973,0.0,0.0,0.0,0.0,0.0,0.0,0.0,0.0,0.0
118570250000,11382,118570250000,RH_EXTIMU,2.29860105202e-06,1.53135510696e-05,-0.703307174806,0.710886079219,0.0,0.0,0.0,0.0,0.0,0.0,0.0,0.0,0.0,1.40377312524e-07,1.02065894621e-08,-7.19641466718e-05,0.0,0.0,0.0,0.0,0.0,0.0,0.0,0.0,0.0,-0.000245229153596,-0.000181370717918,9.80999106945,0.0,0.0,0.0,0.0,0.0,0.0,0.0,0.0,0.0
118572750000,11383,118572750000,RH_EXTIMU,2.29864472509e-06,1.53134814913e-05,-0.703307238753,0.710886015953,0.0,0.0,0.0,0.0,0.0,0.0,0.0,0.0,0.0,6.488494444e-08,-1.43398661856e-08,-7.19633853461e-05,0.0,0.0,0.0,0.0,0.0,0.0,0.0,0.0,0.0,-0.000245649156764,-0.000180235693037,9.81000595613,0.0,0.0,0.0,0.0,0.0,0.0,0.0,0.0,0.0
118575250000,11384,118575250000,RH_EXTIMU,2.29843525828e-06,1.53135401087e-05,-0.7033073027,0.710885952688,0.0,0.0,0.0,0.0,0.0,0.0,0.0,0.0,0.0,-1.51206708922e-07,-8.3861945454e-08,-7.19625340002e-05,0.0,0.0,0.0,0.0,0.0,0.0,0.0,0.0,0.0,-0.000246767681266,-0.000176046941941,9.8100003918,0.0,0.0,0.0,0.0,0.0,0.0,0.0,0.0,0.0
118577750000,11385,118577750000,RH_EXTIMU,2.29856973491e-06,1.5313483661e-05,-0.703307366645,0.710885889424,0.0,0.0,0.0,0.0,0.0,0.0,0.0,0.0,0.0,1.0913778224e-07,4.42179041696e-08,-7.19618060479e-05,0.0,0.0,0.0,0.0,0.0,0.0,0.0,0.0,0.0,-0.000244208452927,-0.000181812181409,9.81001627228,0.0,0.0,0.0,0.0,0.0,0.0,0.0,0.0,0.0
118580250000,11386,118580250000,RH_EXTIMU,2.29851722343e-06,1.53135291027e-05,-0.703307430591,0.710885826161,0.0,0.0,0.0,0.0,0.0,0.0,0.0,0.0,0.0,-5.45315571127e-08,-3.04489074357e-09,-7.19611151684e-05,0.0,0.0,0.0,0.0,0.0,0.0,0.0,0.0,0.0,-0.000245350620972,-0.00017832854179,9.80999203723,0.0,0.0,0.0,0.0,0.0,0.0,0.0,0.0,0.0
118582750000,11387,118582750000,RH_EXTIMU,2.29866182111e-06,1.53134639416e-05,-0.703307494535,0.710885762898,0.0,0.0,0.0,0.0,0.0,0.0,0.0,0.0,0.0,1.19796240464e-07,4.49570954562e-08,-7.19604435764e-05,0.0,0.0,0.0,0.0,0.0,0.0,0.0,0.0,0.0,-0.00024444772038,-0.000181618267906,9.81000361412,0.0,0.0,0.0,0.0,0.0,0.0,0.0,0.0,0.0
118585250000,11388,118585250000,RH_EXTIMU,2.29851115606e-06,1.53134837211e-05,-0.703307558479,0.710885699636,0.0,0.0,0.0,0.0,0.0,0.0,0.0,0.0,0.0,-9.59136286663e-08,-7.28649296074e-08,-7.19596511235e-05,0.0,0.0,0.0,0.0,0.0,0.0,0.0,0.0,0.0,-0.000247266612801,-0.000176864476755,9.80999194005,0.0,0.0,0.0,0.0,0.0,0.0,0.0,0.0,0.0
118587750000,11389,118587750000,RH_EXTIMU,2.29854788036e-06,1.53133564971e-05,-0.703307622422,0.710885636374,0.0,0.0,0.0,0.0,0.0,0.0,0.0,0.0,0.0,9.3367177389e-08,-5.10331673398e-08,-7.19590428375e-05,0.0,0.0,0.0,0.0,0.0,0.0,0.0,0.0,0.0,-0.000245315315719,-0.000181426746934,9.80999372524,0.0,0.0,0.0,0.0,0.0,0.0,0.0,0.0,0.0
118590250000,11390,118590250000,RH_EXTIMU,2.29863457937e-06,1.53133483355e-05,-0.703307686365,0.710885573113,0.0,0.0,0.0,0.0,0.0,0.0,0.0,0.0,0.0,5.47981893739e-08,4.47967441272e-08,-7.1958322153e-05,0.0,0.0,0.0,0.0,0.0,0.0,0.0,0.0,0.0,-0.000244545094786,-0.000180015661254,9.81000287432,0.0,0.0,0.0,0.0,0.0,0.0,0.0,0.0,0.0
118592750000,11391,118592750000,RH_EXTIMU,2.29866617634e-06,1.53133390967e-05,-0.703307750307,0.710885509853,0.0,0.0,0.0,0.0,0.0,0.0,0.0,0.0,0.0,2.40673431488e-08,1.3181079083e-08,-7.19575319412e-05,0.0,0.0,0.0,0.0,0.0,0.0,0.0,0.0,0.0,-0.000245291140023,-0.000179587595425,9.81000850355,0.0,0.0,0.0,0.0,0.0,0.0,0.0,0.0,0.0
118595250000,11392,118595250000,RH_EXTIMU,2.29870353046e-06,1.53133189932e-05,-0.703307814248,0.710885446593,0.0,0.0,0.0,0.0,0.0,0.0,0.0,0.0,0.0,3.34544023606e-08,1.02415340809e-08,-7.19567669657e-05,0.0,0.0,0.0,0.0,0.0,0.0,0.0,0.0,0.0,-0.000245148003989,-0.00018001817734,9.8100087413,0.0,0.0,0.0,0.0,0.0,0.0,0.0,0.0,0.0
118597750000,11393,118597750000,RH_EXTIMU,2.29862435097e-06,1.5313377844e-05,-0.703307878189,0.710885383334,0.0,0.0,0.0,0.0,0.0,0.0,0.0,0.0,0.0,-7.72425682484e-08,-1.04237337883e-08,-7.19560530907e-05,0.0,0.0,0.0,0.0,0.0,0.0,0.0,0.0,0.0,-0.000245386984878,-0.000177844656161,9.8099967776,0.0,0.0,0.0,0.0,0.0,0.0,0.0,0.0,0.0
118600250000,11394,118600250000,RH_EXTIMU,2.29867754397e-06,1.53133896416e-05,-0.703307942129,0.710885320075,0.0,0.0,0.0,0.0,0.0,0.0,0.0,0.0,0.0,2.45130507789e-08,3.72956342867e-08,-7.19553627495e-05,0.0,0.0,0.0,0.0,0.0,0.0,0.0,0.0,0.0,-0.000244593153189,-0.000179790379258,9.81000093551,0.0,0.0,0.0,0.0,0.0,0.0,0.0,0.0,0.0
118602750000,11395,118602750000,RH_EXTIMU,2.29856603335e-06,1.53134355445e-05,-0.703308006068,0.710885256818,0.0,0.0,0.0,0.0,0.0,0.0,0.0,0.0,0.0,-8.83444584957e-08,-3.5978331218e-08,-7.1954647761e-05,0.0,0.0,0.0,0.0,0.0,0.0,0.0,0.0,0.0,-0.000246472692743,-0.000177260420551,9.80998726821,0.0,0.0,0.0,0.0,0.0,0.0,0.0,0.0,0.0
118605250000,11396,118605250000,RH_EXTIMU,2.2988351552e-06,1.531322149e-05,-0.703308070007,0.71088519356,0.0,0.0,0.0,0.0,0.0,0.0,0.0,0.0,0.0,2.7438840806e-07,3.03432703646e-08,-7.19540274091e-05,0.0,0.0,0.0,0.0,0.0,0.0,0.0,0.0,0.0,-0.000243900261899,-0.000185235937118,9.81001066336,0.0,0.0,0.0,0.0,0.0,0.0,0.0,0.0,0.0
118607750000,11397,118607750000,RH_EXTIMU,2.29870186239e-06,1.53133351833e-05,-0.703308133945,0.710885130304,0.0,0.0,0.0,0.0,0.0,0.0,0.0,0.0,0.0,-1.38874266038e-07,-9.68103211183e-09,-7.19532445856e-05,0.0,0.0,0.0,0.0,0.0,0.0,0.0,0.0,0.0,-0.000245893010737,-0.000175743296254,9.80999083851,0.0,0.0,0.0,0.0,0.0,0.0,0.0,0.0,0.0
118610250000,11398,118610250000,RH_EXTIMU,2.29870018804e-06,1.53133300585e-05,-0.703308197883,0.710885067048,0.0,0.0,0.0,0.0,0.0,0.0,0.0,0.0,0.0,2.83085153301e-09,-3.19924869938e-09,-7.19526076562e-05,0.0,0.0,0.0,0.0,0.0,0.0,0.0,0.0,0.0,-0.000245559582096,-0.000179339954601,9.80998970981,0.0,0.0,0.0,0.0,0.0,0.0,0.0,0.0,0.0
118612750000,11399,118612750000,RH_EXTIMU,2.29902682373e-06,1.53132095657e-05,-0.70330826182,0.710885003792,0.0,0.0,0.0,0.0,0.0,0.0,0.0,0.0,0.0,2.54454811859e-07,1.15912553232e-07,-7.19518566508e-05,0.0,0.0,0.0,0.0,0.0,0.0,0.0,0.0,0.0,-0.000243199244619,-0.000184024654843,9.81002410934,0.0,0.0,0.0,0.0,0.0,0.0,0.0,0.0,0.0
118615250000,11400,118615250000,RH_EXTIMU,2.29865563073e-06,1.5313251597e-05,-0.703308325756,0.710884940537,0.0,0.0,0.0,0.0,0.0,0.0,0.0,0.0,0.0,-2.33849635509e-07,-1.84289601244e-07,-7.19510458435e-05,0.0,0.0,0.0,0.0,0.0,0.0,0.0,0.0,0.0,-0.000248766295482,-0.000174788895277,9.80998370048,0.0,0.0,0.0,0.0,0.0,0.0,0.0,0.0,0.0
118617750000,11401,118617750000,RH_EXTIMU,2.29870670094e-06,1.53131786434e-05,-0.703308389691,0.710884877283,0.0,0.0,0.0,0.0,0.0,0.0,0.0,0.0,0.0,7.09907427553e-08,-1.20975250323e-08,-7.19504418922e-05,0.0,0.0,0.0,0.0,0.0,0.0,0.0,0.0,0.0,-0.000244778633486,-0.000180700269656,9.80999365735,0.0,0.0,0.0,0.0,0.0,0.0,0.0,0.0,0.0
118620250000,11402,118620250000,RH_EXTIMU,2.29880698735e-06,1.53131495201e-05,-0.703308453626,0.71088481403,0.0,0.0,0.0,0.0,0.0,0.0,0.0,0.0,0.0,7.43193432023e-08,4.05205096016e-08,-7.19498104984e-05,0.0,0.0,0.0,0.0,0.0,0.0,0.0,0.0,0.0,-0.000244691867085,-0.000180492997048,9.80999223842,0.0,0.0,0.0,0.0,0.0,0.0,0.0,0.0,0.0
118622750000,11403,118622750000,RH_EXTIMU,2.29889776638e-06,1.5313119991e-05,-0.703308517561,0.710884750777,0.0,0.0,0.0,0.0,0.0,0.0,0.0,0.0,0.0,6.91407773684e-08,3.49403693496e-08,-7.19490288186e-05,0.0,0.0,0.0,0.0,0.0,0.0,0.0,0.0,0.0,-0.000244891404741,-0.000180237237009,9.81001075629,0.0,0.0,0.0,0.0,0.0,0.0,0.0,0.0,0.0
118625250000,11404,118625250000,RH_EXTIMU,2.29875815354e-06,1.53131756586e-05,-0.703308581494,0.710884687524,0.0,0.0,0.0,0.0,0.0,0.0,0.0,0.0,0.0,-1.09820605616e-07,-4.623678149e-08,-7.19482110391e-05,0.0,0.0,0.0,0.0,0.0,0.0,0.0,0.0,0.0,-0.000246496141071,-0.000176918394826,9.81000008753,0.0,0.0,0.0,0.0,0.0,0.0,0.0,0.0,0.0
118627750000,11405,118627750000,RH_EXTIMU,2.29880007896e-06,1.53130899821e-05,-0.703308645427,0.710884624273,0.0,0.0,0.0,0.0,0.0,0.0,0.0,0.0,0.0,7.29484612758e-08,-2.44783955294e-08,-7.19476368919e-05,0.0,0.0,0.0,0.0,0.0,0.0,0.0,0.0,0.0,-0.000245169245203,-0.000181262324935,9.80998992623,0.0,0.0,0.0,0.0,0.0,0.0,0.0,0.0,0.0
118630250000,11406,118630250000,RH_EXTIMU,2.29902683977e-06,1.53129569881e-05,-0.70330870936,0.710884561022,0.0,0.0,0.0,0.0,0.0,0.0,0.0,0.0,0.0,2.0468884077e-07,5.26088113902e-08,-7.19469276307e-05,0.0,0.0,0.0,0.0,0.0,0.0,0.0,0.0,0.0,-0.000244121105502,-0.000183094475655,9.81001123736,0.0,0.0,0.0,0.0,0.0,0.0,0.0,0.0,0.0
118632750000,11407,118632750000,RH_EXTIMU,2.29895302205e-06,1.5313042344e-05,-0.703308773292,0.710884497771,0.0,0.0,0.0,0.0,0.0,0.0,0.0,0.0,0.0,-8.91064248241e-08,7.66649171451e-09,-7.19460297676e-05,0.0,0.0,0.0,0.0,0.0,0.0,0.0,0.0,0.0,-0.000245634577052,-0.000176969021046,9.81001327649,0.0,0.0,0.0,0.0,0.0,0.0,0.0,0.0,0.0
118635250000,11408,118635250000,RH_EXTIMU,2.29880865281e-06,1.53131146298e-05,-0.703308837223,0.710884434521,0.0,0.0,0.0,0.0,0.0,0.0,0.0,0.0,0.0,-1.21875795948e-07,-3.94621495667e-08,-7.19453096114e-05,0.0,0.0,0.0,0.0,0.0,0.0,0.0,0.0,0.0,-0.000245916926444,-0.000177382545382,9.80999603076,0.0,0.0,0.0,0.0,0.0,0.0,0.0,0.0,0.0
118637750000,11409,118637750000,RH_EXTIMU,2.29901128518e-06,1.53130561542e-05,-0.703308901153,0.710884371272,0.0,0.0,0.0,0.0,0.0,0.0,0.0,0.0,0.0,1.49039223005e-07,8.14122179179e-08,-7.19446807278e-05,0.0,0.0,0.0,0.0,0.0,0.0,0.0,0.0,0.0,-0.000243777686295,-0.000182253175307,9.81000219259,0.0,0.0,0.0,0.0,0.0,0.0,0.0,0.0,0.0
118640250000,11410,118640250000,RH_EXTIMU,2.29908024294e-06,1.53130328358e-05,-0.703308965083,0.710884308024,0.0,0.0,0.0,0.0,0.0,0.0,0.0,0.0,0.0,5.32362879161e-08,2.61948134098e-08,-7.19439766912e-05,0.0,0.0,0.0,0.0,0.0,0.0,0.0,0.0,0.0,-0.000245095539756,-0.000180029738817,9.80999830041,0.0,0.0,0.0,0.0,0.0,0.0,0.0,0.0,0.0
118642750000,11411,118642750000,RH_EXTIMU,2.29902770854e-06,1.53130393174e-05,-0.703309029012,0.710884244776,0.0,0.0,0.0,0.0,0.0,0.0,0.0,0.0,0.0,-3.26240804563e-08,-2.52149641296e-08,-7.19432574818e-05,0.0,0.0,0.0,0.0,0.0,0.0,0.0,0.0,0.0,-0.000245962408828,-0.000178323756051,9.80999474626,0.0,0.0,0.0,0.0,0.0,0.0,0.0,0.0,0.0
118645250000,11412,118645250000,RH_EXTIMU,2.2988751021e-06,1.53130371917e-05,-0.703309092941,0.710884181528,0.0,0.0,0.0,0.0,0.0,0.0,0.0,0.0,0.0,-8.46928609969e-08,-8.64153127537e-08,-7.19425710457e-05,0.0,0.0,0.0,0.0,0.0,0.0,0.0,0.0,0.0,-0.000246897145429,-0.000177494859289,9.80998406191,0.0,0.0,0.0,0.0,0.0,0.0,0.0,0.0,0.0
118647750000,11413,118647750000,RH_EXTIMU,2.29916984533e-06,1.53128256046e-05,-0.703309156868,0.710884118282,0.0,0.0,0.0,0.0,0.0,0.0,0.0,0.0,0.0,2.87570980908e-07,4.61625928234e-08,-7.19419418422e-05,0.0,0.0,0.0,0.0,0.0,0.0,0.0,0.0,0.0,-0.000243354739118,-0.000185469464098,9.81001309394,0.0,0.0,0.0,0.0,0.0,0.0,0.0,0.0,0.0
